"Time (s)","Linear Acceleration x (m/s^2)","Linear Acceleration y (m/s^2)","Linear Acceleration z (m/s^2)"
9.346298000E-3,-2.889999934E-2,-6.999999750E-4,3.082999885E-1
1.933067300E-2,-2.889999934E-2,-6.999999750E-4,3.082999885E-1
2.933067300E-2,1.440999955E-1,-2.307000011E-1,-3.944999874E-1
3.933067300E-2,1.724999994E-1,-2.877999842E-1,-1.996999979E-1
4.933067300E-2,1.965999901E-1,-4.685999751E-1,4.419999942E-2
5.933067300E-2,1.579999924E-1,-5.580999851E-1,2.380999923E-1
6.933067300E-2,6.239999831E-2,-5.862999558E-1,3.999999762E-1
7.933067300E-2,1.061000004E-1,-5.992999673E-1,5.651999712E-1
8.933067300E-2,1.952999979E-1,-6.006999612E-1,7.784999609E-1
9.933067300E-2,2.445999980E-1,-5.525000095E-1,9.870999455E-1
1.093306730E-1,3.375999928E-1,-5.243999958E-1,1.106099963E0
1.193306730E-1,3.951999843E-1,-4.373999834E-1,1.076399922E0
1.293306730E-1,2.881999910E-1,-4.379999936E-1,7.400999665E-1
1.393306730E-1,1.109999977E-2,-4.393999875E-1,4.189999998E-1
1.493306730E-1,6.069999933E-2,-2.793000042E-1,6.129999831E-2
1.593306730E-1,1.430999935E-1,-1.823000014E-1,-7.959999889E-2
1.693306730E-1,1.144999936E-1,-7.959999889E-2,-2.104000002E-1
1.793306730E-1,4.239999875E-2,-1.162000000E-1,-3.536999822E-1
1.893306730E-1,-5.629999936E-2,-2.667999864E-1,-4.183000028E-1
1.993306730E-1,-8.869999647E-2,-3.359999955E-1,-1.203999966E-1
2.093306730E-1,-1.106999964E-1,-3.057999909E-1,2.978999913E-1
2.193306730E-1,-9.789999574E-2,-2.511999905E-1,6.771999598E-1
2.293306730E-1,-8.049999923E-2,-2.703000009E-1,9.174000025E-1
2.393306730E-1,-4.569999874E-2,-3.480999768E-1,1.037799954E0
2.493306730E-1,-6.859999895E-2,-3.380999863E-1,9.889999628E-1
2.593306730E-1,-3.289999813E-2,-2.382999957E-1,8.184999824E-1
2.693306730E-1,-3.269999847E-2,-2.185999900E-1,4.515999854E-1
2.793306730E-1,3.179999813E-2,-1.739999950E-1,3.136000037E-1
2.893306730E-1,8.739999682E-2,-3.460000083E-2,1.282999963E-1
2.993306730E-1,5.649999902E-2,2.369999886E-2,-4.539999738E-2
3.093306730E-1,3.519999981E-2,5.279999971E-2,6.499999668E-3
3.193306730E-1,1.323999912E-1,8.299999684E-2,1.859999895E-1
3.293306730E-1,2.117999941E-1,8.410000056E-2,4.347999990E-1
3.393306730E-1,2.741999924E-1,8.339999616E-2,5.084999800E-1
3.493306730E-1,2.820000052E-1,1.181999967E-1,5.550000072E-1
3.593306730E-1,3.048999906E-1,1.871999949E-1,4.670999944E-1
3.693306730E-1,3.339999914E-1,2.114999890E-1,2.938999832E-1
3.793306730E-1,3.587999940E-1,2.800000012E-1,1.919000000E-1
3.893306730E-1,3.977999985E-1,3.540999889E-1,1.606999934E-1
3.993306730E-1,4.310999811E-1,4.036999941E-1,2.005999982E-1
4.093306730E-1,4.493999779E-1,3.403999805E-1,-2.199999988E-3
4.193306730E-1,2.872000039E-1,1.852999926E-1,-3.009999990E-1
4.293306730E-1,2.339999974E-1,2.066999972E-1,-1.680999994E-1
4.393306730E-1,1.523000002E-1,2.195999920E-1,3.567000031E-1
4.493306730E-1,8.280000091E-2,1.527999938E-1,7.942000031E-1
4.593306730E-1,5.659999698E-2,7.310000062E-2,1.047099948E0
4.693306730E-1,1.709999889E-1,-1.999999862E-3,1.101499915E0
4.793306730E-1,2.303999960E-1,4.100000020E-3,9.104999900E-1
4.893306730E-1,1.084999964E-1,3.029999882E-2,5.392000079E-1
4.993306730E-1,1.207999960E-1,1.510999948E-1,1.215999946E-1
5.093306730E-1,5.739999935E-2,2.712000012E-1,-3.533999920E-1
5.193306730E-1,-1.044999957E-1,2.084999979E-1,-7.215999961E-1
5.293306730E-1,-1.617999971E-1,4.609999806E-2,-8.281999826E-1
5.393306730E-1,-1.990000010E-1,-1.069999952E-2,-7.822999954E-1
5.493306730E-1,-2.395999879E-1,2.459999919E-2,-6.893000007E-1
5.593306730E-1,-1.627999991E-1,1.555999964E-1,-4.833999872E-1
5.693306730E-1,-5.150000006E-2,2.171999961E-1,-2.583000064E-1
5.793306730E-1,6.610000134E-2,2.483999878E-1,-6.300000101E-2
5.893306730E-1,1.828999966E-1,2.489999980E-1,4.439999908E-2
5.993306730E-1,1.164999977E-1,1.706999987E-1,2.520000003E-2
6.093306730E-1,-8.079999685E-2,5.419999734E-2,-2.576999962E-1
6.193306730E-1,-2.851999998E-1,-2.149999887E-2,-5.209999681E-1
6.293306730E-1,-2.962000072E-1,3.159999847E-2,-5.598999858E-1
6.393306730E-1,-1.847999990E-1,1.255999953E-1,-4.337999821E-1
6.493306730E-1,-4.949999973E-2,1.422999948E-1,-2.208999991E-1
6.593306730E-1,-1.509999949E-2,1.312000006E-1,2.979999967E-2
6.693306730E-1,-7.719999552E-2,1.604999900E-1,2.314999998E-1
6.793306730E-1,-1.080999970E-1,1.234999970E-1,3.148999810E-1
6.893306730E-1,-1.239999980E-1,5.739999935E-2,2.717999816E-1
6.993306730E-1,-1.456999928E-1,-2.740000002E-2,1.115999967E-1
7.093306730E-1,-2.428999990E-1,-1.211999953E-1,-1.658999920E-1
7.193306730E-1,-3.393999934E-1,-8.549999446E-2,-2.969999909E-1
7.293306730E-1,-3.698000014E-1,-2.730000019E-2,-1.454999894E-1
7.393306730E-1,-3.251000047E-1,-6.579999626E-2,-4.429999739E-2
7.493306730E-1,-2.750000060E-1,-6.629999727E-2,1.151999980E-1
7.593306730E-1,-1.894999892E-1,-1.960000023E-2,1.765999943E-1
7.693306730E-1,-1.440999955E-1,-4.100000020E-3,7.189999521E-2
7.793306730E-1,-1.568999887E-1,5.999999703E-4,-1.303000003E-1
7.893306730E-1,-1.493999958E-1,4.529999942E-2,-2.246999890E-1
7.993306730E-1,-1.034999937E-1,6.279999763E-2,-2.811000049E-1
8.093306730E-1,-5.759999901E-2,7.310000062E-2,-2.307000011E-1
8.193306730E-1,-1.169999968E-2,4.690000042E-2,-9.329999983E-2
8.293306730E-1,3.379999846E-2,7.039999962E-2,-6.399999559E-2
8.393306730E-1,5.810000002E-2,1.223999932E-1,-1.519999932E-2
8.493306730E-1,1.092999950E-1,1.827999949E-1,1.512999982E-1
8.593306730E-1,2.369999886E-1,2.603999972E-1,1.908999979E-1
8.693306730E-1,1.976999938E-1,2.574999928E-1,1.921999902E-1
8.793306730E-1,1.202999949E-1,1.360999942E-1,1.645999998E-1
8.893306730E-1,6.419999897E-2,8.299999684E-2,1.668999940E-1
8.993306730E-1,1.929999888E-2,4.979999736E-2,1.891999990E-1
9.093306730E-1,8.519999683E-2,9.470000118E-2,3.200999796E-1
9.193306730E-1,9.239999950E-2,4.140000045E-2,3.725999892E-1
9.293306730E-1,-1.420000009E-2,1.549999975E-2,3.190999925E-1
9.393306730E-1,-7.979999483E-2,-4.169999808E-2,-2.134999931E-1
9.493306730E-1,-2.788999975E-1,1.362999976E-1,-1.470999956E0
9.593306730E-1,-7.069999725E-2,1.595999897E-1,-1.850000024E-1
9.693306730E-1,-1.899999939E-2,-2.699999884E-2,1.086400032E0
9.793306730E-1,-1.536999941E-1,-1.042999998E-1,1.125699997E0
9.893306730E-1,-2.380999923E-1,-8.469999582E-2,4.640999734E-1
9.993306730E-1,-2.026000023E-1,-1.188999936E-1,-3.321999907E-1
1.009330673E0,-2.234999985E-1,-3.390000015E-2,-7.754999995E-1
1.019330673E0,-1.122999936E-1,4.569999874E-2,-9.375999570E-1
1.029330673E0,4.230000079E-2,8.159999549E-2,-1.123099923E0
1.039330673E0,1.350999922E-1,1.730999947E-1,-1.145399928E0
1.049330673E0,2.134999931E-1,2.336999923E-1,-9.077000022E-1
1.059330673E0,2.700999975E-1,2.324999869E-1,-6.441000104E-1
1.069330673E0,1.396999955E-1,8.079999685E-2,-4.616999924E-1
1.079330673E0,-4.969999939E-2,-1.041999981E-1,-3.111999929E-1
1.089330673E0,-1.140999943E-1,-1.381999999E-1,4.299999774E-2
1.099330673E0,-1.314000040E-1,-1.130999997E-1,2.793999910E-1
1.109330673E0,-1.125999987E-1,-7.289999723E-2,3.208999932E-1
1.119330673E0,-6.830000132E-2,-8.679999411E-2,3.440999985E-1
1.129330673E0,-1.609999873E-2,-3.559999913E-2,4.959999919E-1
1.139330673E0,8.700000122E-3,-1.669999957E-2,4.535000026E-1
1.149330673E0,-1.389999967E-2,3.219999745E-2,4.602999985E-1
1.159330673E0,0.000000000E0,6.769999862E-2,4.799999893E-1
1.169330673E0,7.559999824E-2,1.244999990E-1,3.330000043E-1
1.179330673E0,1.541000009E-1,1.711999923E-1,1.279999912E-1
1.189330673E0,1.251000017E-1,2.177999914E-1,-5.719999969E-2
1.199330673E0,5.439999700E-2,1.757999957E-1,-2.525999844E-1
1.209330673E0,-6.069999933E-2,3.509999812E-2,-3.899999857E-1
1.219330673E0,-9.420000017E-2,1.289999951E-2,-3.033999801E-1
1.229330673E0,-1.814000010E-1,-8.569999784E-2,-1.986999959E-1
1.239330673E0,-1.631999910E-1,-1.420999914E-1,4.160000011E-2
1.249330673E0,-1.537999958E-1,-2.248999923E-1,2.518000007E-1
1.259330673E0,-1.697999984E-1,-2.570999861E-1,1.975999922E-1
1.269330673E0,-2.531000078E-1,-2.164999992E-1,6.390000135E-2
1.279330673E0,-2.329999954E-1,-1.310999990E-1,1.388999969E-1
1.289330673E0,-2.061000019E-1,-1.013999954E-1,1.632999927E-1
1.299330673E0,-1.415999979E-1,-6.239999831E-2,1.288999915E-1
1.309330673E0,8.769999444E-2,-1.429999992E-2,1.631999910E-1
1.319330673E0,2.574999928E-1,3.319999948E-2,-7.999999449E-3
1.329330673E0,2.407999933E-1,3.260000050E-2,-1.305000037E-1
1.339330673E0,-1.181999967E-1,-1.318999976E-1,-1.946999878E-1
1.349330673E0,-1.323999912E-1,9.789999574E-2,-2.379999869E-2
1.359330673E0,1.758999974E-1,1.915999949E-1,-2.732999921E-1
1.369330673E0,2.608000040E-1,1.691000015E-1,-1.796000004E-1
1.379330673E0,2.442999929E-1,1.171999946E-1,1.180999950E-1
1.389330673E0,1.489999890E-1,1.162999943E-1,3.157999814E-1
1.399330673E0,5.249999836E-2,1.899999939E-2,3.608999848E-1
1.409330673E0,5.419999734E-2,-5.669999868E-2,3.073999882E-1
1.419330673E0,3.729999810E-2,-1.431999952E-1,2.448999882E-1
1.429330673E0,2.019999921E-2,-1.912999898E-1,1.335999966E-1
1.439330673E0,3.959999979E-2,-8.389999717E-2,7.169999927E-2
1.449330673E0,1.342999935E-1,-7.999999449E-3,-1.171999946E-1
1.459330673E0,3.170999885E-1,2.699999884E-2,-4.526999891E-1
1.469330673E0,3.789999783E-1,8.479999751E-2,-8.774999976E-1
1.479330673E0,3.585000038E-1,5.350000039E-2,-1.291399956E0
1.489330673E0,2.933000028E-1,-6.229999661E-2,-1.562299967E0
1.499330673E0,2.505999804E-1,-1.463999897E-1,-1.699899912E0
1.509330673E0,2.899000049E-1,-1.303000003E-1,-1.550199986E0
1.519330673E0,3.704999983E-1,-1.630000025E-2,-1.114899993E0
1.529330673E0,5.085999966E-1,7.099999487E-2,-2.830999792E-1
1.539330673E0,6.516000032E-1,1.083000004E-1,4.397999942E-1
1.549330673E0,7.646999955E-1,8.089999855E-2,1.125299931E0
1.559330673E0,8.807999492E-1,5.169999972E-2,1.774599910E0
1.569330673E0,9.009999633E-1,-3.289999962E-1,1.986799955E0
1.579330673E0,7.082999945E-1,-8.130999804E-1,1.733199954E0
1.589330673E0,4.594999850E-1,-8.558999896E-1,1.347499967E0
1.599330673E0,2.705000043E-1,-4.879999757E-1,8.685999513E-1
1.609330673E0,2.440999895E-1,-7.899999619E-2,3.443999887E-1
1.619330673E0,3.319000006E-1,1.699000001E-1,-4.039999843E-2
1.629330673E0,4.014999866E-1,2.443999946E-1,-1.890999973E-1
1.639330673E0,3.276000023E-1,1.952999979E-1,-1.900999993E-1
1.649330673E0,1.286000013E-1,8.399999887E-2,-1.026999950E-1
1.659330673E0,-1.317999959E-1,-6.790000200E-2,2.400000021E-2
1.669330673E0,-2.669000030E-1,-2.796999812E-1,1.314000040E-1
1.679330673E0,-2.757999897E-1,-4.540999830E-1,7.229999453E-2
1.689330673E0,-1.947999895E-1,-5.214999914E-1,3.700000001E-3
1.699330673E0,-1.792999953E-1,-4.792999923E-1,6.260000169E-2
1.709393173E0,-1.788999885E-1,-4.429000020E-1,2.190999985E-1
1.719330673E0,-1.527999938E-1,-4.509999752E-1,2.083999962E-1
1.729330673E0,-9.979999810E-2,-5.424999595E-1,6.969999522E-2
1.739330673E0,-8.699999750E-2,-5.202000141E-1,-1.577999890E-1
1.749330673E0,-4.409999773E-2,-4.786999822E-1,-2.884999812E-1
1.759330673E0,3.109999932E-2,-4.629999995E-1,-2.626999915E-1
1.769330673E0,2.391999960E-1,-4.684999883E-1,-2.378999889E-1
1.779330673E0,3.197000027E-1,-6.083999872E-1,1.395999938E-1
1.789330673E0,2.750999928E-1,-7.486000061E-1,1.938999891E-1
1.799330673E0,1.580999941E-1,-8.017999530E-1,1.215000004E-1
1.809330673E0,2.076999992E-1,-6.401999593E-1,-1.754999906E-1
1.819330673E0,3.061999977E-1,-2.724999785E-1,-5.304999948E-1
1.829330673E0,4.114999771E-1,7.729999721E-2,-8.945999742E-1
1.839330673E0,4.729999900E-1,1.062999964E-1,-1.219099998E0
1.849330673E0,3.404999971E-1,-2.906999886E-1,-1.366999984E0
1.859330673E0,5.200000014E-3,-8.263999820E-1,-1.113099933E0
1.869330673E0,-3.046000004E-1,-1.336699963E0,-8.292999864E-1
1.879330673E0,-5.464999676E-1,-1.685499907E0,-7.400000095E-1
1.889330673E0,-5.669999719E-1,-1.846099973E0,-1.167599916E0
1.899330673E0,-4.185999930E-1,-1.619499922E0,-1.768799901E0
1.909330673E0,2.987999916E-1,-8.677999973E-1,-1.828999996E0
1.919330673E0,9.368000031E-1,-4.569999874E-2,-1.399999976E0
1.929330673E0,1.296899915E0,6.627999544E-1,-1.111500025E0
1.939330673E0,1.188599944E0,9.896999598E-1,-4.368000031E-1
1.949330673E0,7.562999725E-1,8.165000081E-1,5.364999771E-1
1.959330673E0,-6.929999590E-2,2.906000018E-1,1.389799953E0
1.969330673E0,-8.870999813E-1,-3.689000010E-1,2.565799952E0
1.979332236E0,-1.490099907E0,-9.052999616E-1,2.852299929E0
1.989330673E0,-1.524199963E0,-1.078599930E0,1.806199908E0
1.999330673E0,-6.764000058E-1,-8.122999668E-1,5.478000045E-1
2.009330673E0,5.634999871E-1,-4.779999852E-1,-1.598999947E-1
2.019330673E0,1.923999906E0,1.305000037E-1,-4.249999821E-1
2.029330673E0,2.441200018E0,7.310000062E-1,-5.521000028E-1
2.039330673E0,2.399099827E0,1.167199969E0,-5.999000072E-1
2.049330673E0,2.102099895E0,1.440699935E0,-4.310999811E-1
2.059330673E0,1.602100015E0,1.468699932E0,-1.736999899E-1
2.069330673E0,9.101999998E-1,1.245100021E0,4.600000102E-3
2.079330673E0,9.939999878E-2,8.628999591E-1,-1.419000030E-1
2.089330673E0,-6.563000083E-1,4.271999896E-1,-5.745999813E-1
2.099330673E0,-9.890999794E-1,-2.600000007E-3,-8.723999858E-1
2.109330673E0,-1.107699990E0,-2.942999899E-1,-8.508999944E-1
2.119330673E0,-1.192399979E0,-3.797000051E-1,-7.917999625E-1
2.129330673E0,-1.901299953E0,-4.907999933E-1,9.707999825E-1
2.139330673E0,-1.929899931E0,-2.949000001E-1,8.509999514E-1
2.149330673E0,-9.706999660E-1,9.899999946E-2,4.582999945E-1
2.159330673E0,-8.169999719E-1,5.781999826E-1,7.637000084E-1
2.169330673E0,-7.752999663E-1,9.001999497E-1,9.731999636E-1
2.179330673E0,-8.290999532E-1,9.677000046E-1,9.005999565E-1
2.189330673E0,-1.023000002E0,7.149999738E-1,6.147999763E-1
2.199330673E0,-1.278900027E0,2.047999948E-1,3.804999888E-1
2.209330673E0,-1.435999990E0,-3.832999766E-1,2.462999970E-1
2.219330673E0,-1.367999911E0,-8.932999969E-1,2.701999843E-1
2.229330673E0,-1.213299990E0,-1.137499928E0,2.750999928E-1
2.239330673E0,-1.065199971E0,-1.137399912E0,3.863999844E-1
2.249330673E0,-8.965999484E-1,-9.495999813E-1,5.950999856E-1
2.259330673E0,-6.592000127E-1,-6.222999692E-1,7.637000084E-1
2.269330673E0,-4.583999813E-1,-2.452999949E-1,8.822000027E-1
2.279330673E0,-3.588999808E-1,2.479999885E-2,8.531000018E-1
2.289330673E0,-2.969999909E-1,2.203999907E-1,7.944999933E-1
2.299330673E0,-2.612999976E-1,3.736999929E-1,7.458999753E-1
2.309330673E0,-2.593999803E-1,4.083999991E-1,6.782000065E-1
2.319330673E0,-3.190000057E-1,3.161999881E-1,5.817999840E-1
2.329330673E0,-3.104999959E-1,2.647999823E-1,4.962999821E-1
2.339330673E0,-2.848999798E-1,2.347999960E-1,4.116999805E-1
2.349330673E0,-2.559999824E-1,1.872999966E-1,4.748999774E-1
2.359330673E0,-2.953000069E-1,1.634999961E-1,5.759999752E-1
2.369330673E0,-1.350999922E-1,2.439000010E-1,5.780999660E-1
2.379330673E0,1.351999938E-1,4.052999914E-1,4.416999817E-1
2.389330673E0,4.390999973E-1,5.706999898E-1,2.062999904E-1
2.399330673E0,5.723999739E-1,7.335000038E-1,9.769999981E-2
2.409330673E0,6.531999707E-1,8.960999846E-1,6.719999760E-2
2.419330673E0,7.202999592E-1,9.904999733E-1,9.519999474E-2
2.429330673E0,7.258999944E-1,9.684000015E-1,2.111999989E-1
2.439330673E0,5.123999715E-1,8.100000024E-1,2.974999845E-1
2.449330673E0,2.064999938E-1,6.322000027E-1,2.755999863E-1
2.459330673E0,-2.539999969E-2,4.729999900E-1,2.432999909E-1
2.469330673E0,-2.460999936E-1,3.409999907E-1,3.278999925E-1
2.479343173E0,-4.411000013E-1,1.864999980E-1,5.101999640E-1
2.489330673E0,-4.509999752E-1,-4.050000012E-2,6.039999723E-1
2.499330673E0,-3.869999945E-1,-2.126999944E-1,6.678999662E-1
2.509330673E0,-2.805999815E-1,-2.890999913E-1,7.027999759E-1
2.519330673E0,-1.384999901E-1,-2.982999980E-1,6.696999669E-1
2.529330673E0,5.049999803E-2,-2.010999918E-1,4.998999834E-1
2.539330673E0,1.985999942E-1,-6.560000032E-2,1.542999893E-1
2.549330673E0,3.558000028E-1,2.139999904E-2,-2.492999882E-1
2.559330673E0,3.737999797E-1,1.120999977E-1,-4.561999738E-1
2.569330673E0,2.973999977E-1,1.978999972E-1,-4.271000028E-1
2.579330673E0,2.201000005E-1,2.287999988E-1,-2.705000043E-1
2.589330673E0,1.096000001E-1,2.206999958E-1,-1.336999983E-1
2.599330673E0,1.519999932E-2,1.345999986E-1,-4.619999975E-2
2.609330673E0,-8.329999447E-2,-2.499999944E-3,4.089999944E-2
2.619330673E0,-2.325999886E-1,-2.190999985E-1,1.083000004E-1
2.629330673E0,-3.422999978E-1,-4.165000021E-1,1.463000029E-1
2.639330673E0,-4.417999983E-1,-5.070999861E-1,1.156999990E-1
2.649330673E0,-5.428999662E-1,-5.802999735E-1,4.569999874E-2
2.659330673E0,-5.486999750E-1,-5.376999974E-1,6.379999965E-2
2.669330673E0,-4.681999981E-1,-3.985999823E-1,1.601999998E-1
2.679330673E0,-1.814000010E-1,-1.721999943E-1,1.586000025E-1
2.689330673E0,1.184000000E-1,2.439999953E-2,6.899999827E-2
2.699330673E0,3.746999800E-1,1.833999902E-1,-2.989999950E-2
2.709330673E0,5.004000068E-1,2.164999992E-1,-1.676999927E-1
2.719330673E0,5.144999623E-1,1.773999929E-1,-2.754999995E-1
2.729330673E0,3.964000046E-1,8.139999956E-2,-3.437999785E-1
2.739330673E0,1.810999960E-1,-2.219999954E-2,-2.845000029E-1
2.749330673E0,2.239999920E-2,-2.134999931E-1,-1.664000005E-1
2.759330673E0,-2.168999910E-1,-4.249999821E-1,-1.072999984E-1
2.769330673E0,-3.680999875E-1,-5.583999753E-1,-4.829999804E-2
2.779330673E0,-4.114999771E-1,-5.454999804E-1,-8.799999952E-3
2.789330673E0,-3.479000032E-1,-5.144999623E-1,-8.700000122E-3
2.799330673E0,-1.974999905E-1,-4.269999862E-1,-1.360999942E-1
2.809330673E0,-1.950000040E-2,-3.018999994E-1,-2.636999786E-1
2.819330673E0,1.269000024E-1,-1.471000016E-1,-2.834999859E-1
2.829330673E0,2.122999877E-1,-3.089999966E-2,-1.465999931E-1
2.839330673E0,2.579999864E-1,6.009999663E-2,1.970000006E-2
2.849330673E0,2.542999983E-1,1.128999963E-1,1.860999912E-1
2.859330673E0,2.219000012E-1,9.779999405E-2,2.545000017E-1
2.869330673E0,9.319999814E-2,-2.489999868E-2,3.231000006E-1
2.879330673E0,-4.199999850E-3,-1.972000003E-1,2.935999930E-1
2.889330673E0,-1.299999952E-1,-3.217999935E-1,3.034999967E-1
2.899330673E0,-2.152999938E-1,-5.065999627E-1,3.721999824E-1
2.909330673E0,-2.096999884E-1,-6.146000028E-1,2.939999998E-1
2.919330673E0,-9.139999747E-2,-5.379999876E-1,-1.909999922E-2
2.929330673E0,1.394999921E-1,-3.537999988E-1,-3.025999963E-1
2.939330673E0,4.411000013E-1,-1.187999994E-1,-4.975999892E-1
2.949330673E0,6.854999661E-1,6.870000064E-2,-6.335999966E-1
2.959330673E0,8.269999623E-1,2.117999941E-1,-6.620999575E-1
2.969330673E0,8.604999781E-1,2.797999978E-1,-5.041999817E-1
2.979330673E0,7.401999831E-1,2.919999957E-1,-1.996999979E-1
2.989330673E0,6.060000062E-1,2.067999989E-1,5.539999902E-2
2.999330673E0,4.178999960E-1,1.169999968E-2,2.317999899E-1
3.009330673E0,2.177999914E-1,-2.054999918E-1,3.100000024E-1
3.019330673E0,1.009999961E-2,-3.556999862E-1,2.608000040E-1
3.029330673E0,-8.519999683E-2,-4.081999958E-1,1.530999988E-1
3.039330673E0,-1.194999963E-1,-4.122999907E-1,-2.290000021E-2
3.049330673E0,-1.061000004E-1,-3.190000057E-1,-1.697999984E-1
3.059330673E0,-2.779999934E-2,-1.668999940E-1,-1.501999944E-1
3.069330673E0,1.046999991E-1,-8.389999717E-2,-4.270000011E-2
3.079330673E0,2.256999910E-1,-1.950000040E-2,-4.309999943E-2
3.089330673E0,2.868999839E-1,-3.999999724E-3,-5.350000039E-2
3.099330673E0,2.902999818E-1,-1.649999991E-2,-3.429999948E-2
3.109330673E0,2.267999947E-1,-4.659999907E-2,-1.499999966E-2
3.119330673E0,1.551000029E-1,-1.143999994E-1,4.349999875E-2
3.129330673E0,2.479999885E-2,-1.909999996E-1,2.001999915E-1
3.139330673E0,-1.351999938E-1,-2.972999811E-1,3.176999986E-1
3.149330673E0,-2.361999899E-1,-3.853999972E-1,4.056999981E-1
3.159330673E0,-2.769999802E-1,-4.257999957E-1,4.055999815E-1
3.169330673E0,-2.364999950E-1,-3.989999890E-1,2.585999966E-1
3.179330673E0,-1.340999901E-1,-2.549000084E-1,1.607999951E-1
3.189330673E0,-1.090000011E-2,-6.199999899E-2,1.219999939E-1
3.199330673E0,1.686999947E-1,2.319999970E-2,1.123999953E-1
3.209330673E0,2.492999882E-1,4.800000042E-2,4.699999932E-3
3.219330673E0,2.795999944E-1,3.700000001E-3,-6.379999965E-2
3.229330673E0,2.203999907E-1,-4.010000080E-2,-6.379999965E-2
3.239330673E0,1.709999889E-1,-1.226999983E-1,-8.339999616E-2
3.249330673E0,6.300000101E-2,-1.851999909E-1,-1.030000001E-1
3.259330673E0,1.399999950E-2,-2.377999872E-1,-1.323999912E-1
3.269330673E0,3.359999880E-2,-2.114999890E-1,-1.617999971E-1
3.279330673E0,8.269999921E-2,-1.551000029E-1,-1.225999966E-1
3.289330673E0,1.221999973E-1,-1.076999977E-1,-1.028999984E-1
3.299330673E0,1.234999970E-1,-5.959999934E-2,-7.339999825E-2
3.309330673E0,6.639999896E-2,-5.999999866E-2,1.489999983E-2
3.319330673E0,4.809999838E-2,-1.288999915E-1,2.479999885E-2
3.329330673E0,1.030000020E-2,-2.179999948E-1,-6.329999864E-2
3.339330673E0,-7.660000026E-2,-2.876999974E-1,-6.319999695E-2
3.349330673E0,-5.659999698E-2,-2.985999882E-1,-4.349999875E-2
3.359330673E0,-1.819999889E-2,-2.904999852E-1,-1.219999939E-1
3.369330673E0,5.709999800E-2,-2.340999991E-1,-1.123999953E-1
3.379330673E0,9.149999917E-2,-1.278000027E-1,4.399999976E-2
3.389330673E0,1.136999950E-1,-6.039999798E-2,2.494999915E-1
3.399330673E0,4.820000008E-2,-8.109999448E-2,3.666999936E-1
3.409330673E0,-3.449999914E-2,-1.506000012E-1,4.153999984E-1
3.419330673E0,-1.042999998E-1,-2.201999873E-1,3.858999908E-1
3.429330673E0,-1.419000030E-1,-2.114999890E-1,2.978000045E-1
3.439330673E0,-1.887999922E-1,-1.638000011E-1,3.175999820E-1
3.449330673E0,-2.260999978E-1,-1.666999906E-1,2.588999867E-1
3.459330673E0,-2.348999977E-1,-2.106999904E-1,1.314999908E-1
3.469330673E0,-2.261999995E-1,-2.365999967E-1,1.118999943E-1
3.479330673E0,-1.792999953E-1,-1.833999902E-1,1.314000040E-1
3.489330673E0,-1.040999964E-1,-8.240000159E-2,1.605999917E-1
3.499330673E0,1.960000023E-2,5.680000037E-2,1.702999920E-1
3.509330673E0,1.144999936E-1,6.759999692E-2,7.209999859E-2
3.519330673E0,1.700999886E-1,5.729999766E-2,-6.399999838E-3
3.529330673E0,2.273999900E-1,2.009999938E-2,-2.599999867E-2
3.539330673E0,2.568999827E-1,2.899999963E-3,-4.549999908E-2
3.549330673E0,2.099999934E-1,-1.349999942E-2,-2.569999918E-2
3.559330673E0,1.544999927E-1,-8.200000040E-3,-7.440000027E-2
3.569330673E0,1.013999954E-1,-4.239999875E-2,-1.425999999E-1
3.579330673E0,1.052000001E-1,-4.580000043E-2,-2.010999918E-1
3.589330673E0,3.799999878E-2,-7.869999856E-2,-2.500000000E-1
3.599330673E0,-2.399999881E-3,-8.179999888E-2,-2.401999980E-1
3.609330673E0,-7.589999586E-2,-8.429999650E-2,-1.228000000E-1
3.619330673E0,-1.331999898E-1,-8.669999987E-2,1.379999984E-2
3.629330673E0,-1.599999964E-1,-1.669999957E-1,1.507000029E-1
3.639330673E0,-1.675999910E-1,-1.798999906E-1,1.599999964E-1
3.649330673E0,-1.342999935E-1,-1.931999922E-1,1.792999953E-1
3.659330673E0,-8.850000054E-2,-1.966999918E-1,1.400000006E-1
3.669330673E0,-2.969999984E-2,-2.101999968E-1,2.229999937E-2
3.679330673E0,1.500000013E-3,-2.029999942E-1,-8.529999852E-2
3.689330673E0,5.269999802E-2,-1.858000010E-1,-1.732999980E-1
3.699330673E0,1.217999980E-1,-1.485999972E-1,-1.732999980E-1
3.709330673E0,1.491999924E-1,-1.106999964E-1,-1.439999938E-1
3.719330673E0,1.746999919E-1,-6.260000169E-2,-1.049999967E-1
3.729330673E0,1.705999970E-1,-3.799999831E-3,2.499999944E-3
3.739330673E0,1.359999925E-1,-3.280000016E-2,1.100999936E-1
3.749330673E0,1.118000001E-1,-1.110999957E-1,8.039999753E-2
3.759330673E0,8.869999647E-2,-1.211999953E-1,8.009999990E-2
3.769330673E0,8.619999886E-2,-1.210999936E-1,1.387999952E-1
3.779330673E0,7.599999662E-3,-1.109999940E-1,1.583999991E-1
3.789330673E0,-4.869999737E-2,-1.397999972E-1,1.781999916E-1
3.799330673E0,-4.479999840E-2,-1.884000003E-1,1.587999910E-1
3.809330673E0,-4.889999703E-2,-1.886999905E-1,8.069999516E-2
3.819330673E0,-5.169999972E-2,-1.993999928E-1,2.699999837E-3
3.829330673E0,2.300000051E-3,-1.809999943E-1,-9.489999712E-2
3.839330673E0,2.559999935E-2,-1.732999980E-1,-2.318999916E-1
3.849330673E0,4.529999942E-2,-1.263999939E-1,-2.612999976E-1
3.859330673E0,3.119999915E-2,-5.920000002E-2,-1.241999939E-1
3.869330673E0,-2.609999850E-2,-6.989999861E-2,2.229999937E-2
3.879330673E0,-5.329999700E-2,-9.950000048E-2,2.080999911E-1
3.889330673E0,-8.919999748E-2,-1.679999977E-1,3.939999938E-1
3.899330673E0,-1.111999974E-1,-1.973999888E-1,3.840999901E-1
3.909330673E0,-1.176999956E-1,-1.979999989E-1,2.763999999E-1
3.919330673E0,-9.079999477E-2,-1.890999973E-1,1.004000008E-1
3.929330673E0,-7.299999893E-2,-1.608999968E-1,-3.629999980E-2
3.939330673E0,2.799999900E-3,-1.428000033E-1,-1.632999927E-1
3.949330673E0,4.569999874E-2,-9.589999914E-2,-2.119999975E-1
3.959330673E0,1.489999983E-2,-7.889999449E-2,-9.439999610E-2
3.969330673E0,3.830000013E-2,-1.212999970E-1,2.290000021E-2
3.979330673E0,4.189999774E-2,-1.241999939E-1,6.179999933E-2
3.989330673E0,4.559999704E-2,-9.820000082E-2,1.202999949E-1
3.999330673E0,9.049999714E-2,-6.169999763E-2,2.082999945E-1
4.009330673E0,1.186999977E-1,-5.389999971E-2,2.377000004E-1
4.019330673E0,9.160000086E-2,-6.579999626E-2,1.888999939E-1
4.029330673E0,9.569999576E-2,-1.266999990E-1,1.304000020E-1
4.039330673E0,-1.799999923E-2,-2.072999924E-1,5.219999701E-2
4.049330673E0,-1.322999895E-1,-2.486999929E-1,1.014999971E-1
4.059330673E0,-1.986999959E-1,-2.608000040E-1,1.703999937E-1
4.069330673E0,-2.073999941E-1,-2.447999865E-1,1.999000013E-1
4.079330673E0,-1.577999890E-1,-2.290999889E-1,1.411999911E-1
4.089330673E0,-6.790000200E-2,-2.052000016E-1,2.379999869E-2
4.099330673E0,-5.899999756E-3,-1.810999960E-1,-4.439999908E-2
4.109330673E0,4.710000008E-2,-1.665000021E-1,-1.028999984E-1
4.119330673E0,1.393999904E-1,-1.527999938E-1,-2.004999965E-1
4.129330673E0,1.704999954E-1,-1.279999912E-1,-2.689000070E-1
4.139330673E0,2.392999977E-1,-4.329999909E-2,-1.314999908E-1
4.149330673E0,1.699000001E-1,-1.640000008E-2,-1.379999984E-2
4.159330673E0,6.049999967E-2,-6.740000099E-2,5.469999835E-2
4.169330673E0,-6.839999557E-2,-2.267999947E-1,1.134999990E-1
4.179330673E0,-9.809999913E-2,-2.784999907E-1,6.449999660E-2
4.189330673E0,-7.840000093E-2,-2.820999920E-1,5.799999926E-3
4.199330673E0,-5.790000036E-2,-2.565000057E-1,-5.279999971E-2
4.209330673E0,3.199999779E-2,-2.105000019E-1,-7.220000029E-2
4.219330673E0,1.569999941E-2,-1.640999913E-1,-8.169999719E-2
4.229330673E0,7.599999662E-3,-1.562999934E-1,-2.269999869E-2
4.239330673E0,-2.399999881E-3,-1.783999950E-1,1.649999991E-2
4.249330673E0,-4.600000102E-3,-2.212999910E-1,2.630000003E-2
4.259330673E0,1.209999993E-2,-2.439000010E-1,2.620000020E-2
4.269330673E0,1.829999872E-2,-2.273999900E-1,5.539999902E-2
4.279330673E0,3.480000049E-2,-2.096999884E-1,1.338000000E-1
4.289330673E0,4.109999910E-2,-1.823999882E-1,2.219000012E-1
4.299330673E0,4.809999838E-2,-2.047999948E-1,2.316000015E-1
4.309330673E0,4.639999941E-2,-2.185999900E-1,1.432999969E-1
4.319330673E0,6.629999727E-2,-2.430000007E-1,4.539999738E-2
4.329330673E0,9.779999405E-2,-2.466999888E-1,-6.209999695E-2
4.339330673E0,9.209999442E-2,-2.694999874E-1,-1.990000010E-1
4.349330673E0,1.163999960E-1,-2.520000041E-1,-2.181999981E-1
4.359330673E0,1.204999983E-1,-2.433999926E-1,-2.374999970E-1
4.369330673E0,1.039000005E-1,-2.246999890E-1,-2.470999956E-1
4.379330673E0,1.048000008E-1,-1.854999959E-1,-1.979999989E-1
4.389330673E0,1.238999963E-1,-1.947999895E-1,-1.294000000E-1
4.399330673E0,1.128999963E-1,-1.838999987E-1,-2.169999853E-2
4.409330673E0,4.279999807E-2,-2.117999941E-1,7.499999832E-3
4.419330673E0,-3.659999743E-2,-2.392999977E-1,6.619999558E-2
4.429330673E0,-7.609999925E-2,-2.771999836E-1,7.599999756E-2
4.439330673E0,-5.609999970E-2,-2.958000004E-1,2.689999901E-2
4.449330673E0,-3.509999812E-2,-2.456999868E-1,-2.199999988E-2
4.459330673E0,2.559999935E-2,-2.048999965E-1,-3.170000017E-2
4.469330673E0,4.669999704E-2,-1.437999904E-1,-1.200000010E-2
4.479330673E0,5.680000037E-2,-1.321000010E-1,-2.300000051E-3
4.489330673E0,5.609999970E-2,-1.398999989E-1,-2.399999881E-3
4.499330673E0,5.469999835E-2,-1.570999920E-1,7.100000046E-3
4.509330673E0,3.359999880E-2,-1.731999964E-1,7.559999824E-2
4.519330673E0,6.169999763E-2,-1.794999987E-1,1.048000008E-1
4.529330673E0,-8.100000210E-3,-1.665999889E-1,1.340000033E-1
4.539330673E0,-3.940000013E-2,-1.833999902E-1,2.514999807E-1
4.549330673E0,-6.179999933E-2,-2.106999904E-1,3.689000010E-1
4.559330673E0,-8.289999515E-2,-2.590000033E-1,3.687999845E-1
4.569330673E0,-5.219999701E-2,-2.886999846E-1,2.511999905E-1
4.579330673E0,1.979999989E-2,-2.696999907E-1,1.338000000E-1
4.589330673E0,7.459999621E-2,-2.313999981E-1,6.699999794E-3
4.599330673E0,1.692000031E-1,-1.635999978E-1,-1.594000012E-1
4.609330673E0,2.424999923E-1,-1.648999900E-1,-3.355999887E-1
4.619330673E0,2.834999859E-1,-1.568000019E-1,-4.530999959E-1
4.629330673E0,3.030000031E-1,-1.668999940E-1,-4.334999919E-1
4.639330673E0,2.633000016E-1,-1.944999993E-1,-3.746999800E-1
4.649330673E0,2.337999940E-1,-2.791999876E-1,-3.355999887E-1
4.659330673E0,1.659999937E-1,-3.826999962E-1,-3.748999834E-1
4.669330673E0,1.300999969E-1,-4.946999848E-1,-4.925999939E-1
4.679330673E0,1.143999994E-1,-5.084999800E-1,-5.512999892E-1
4.689330673E0,1.384999901E-1,-5.002999902E-1,-5.708000064E-1
4.699330673E0,1.617999971E-1,-5.299000144E-1,-5.315999985E-1
4.709330673E0,1.849000007E-1,-5.974999666E-1,-5.218999982E-1
4.719330673E0,1.900999993E-1,-6.139000058E-1,-5.315999985E-1
4.729330673E0,1.765999943E-1,-7.493000031E-1,-5.805000067E-1
4.739330673E0,1.367999911E-1,-9.513999820E-1,-5.507000089E-1
4.749330673E0,-1.509999949E-2,-1.181100011E0,-4.518999755E-1
4.759330673E0,-1.741999984E-1,-1.306399941E0,-4.017999768E-1
4.769330673E0,-1.847999990E-1,-1.451200008E0,-5.861999989E-1
4.779330673E0,-3.119999915E-2,-1.659999967E0,-8.489999771E-1
4.789330673E0,-4.179999977E-2,-1.675099969E0,-9.447999597E-1
4.799330673E0,3.429999948E-2,-1.742599964E0,-1.089599967E0
4.809330673E0,1.410999894E-1,-1.852199912E0,-1.224300027E0
4.819330673E0,4.876999855E-1,-2.013499975E0,-1.240899920E0
4.829330673E0,7.508999705E-1,-2.105599880E0,-1.130299926E0
4.839330673E0,9.709999561E-1,-2.088999987E0,-1.048499942E0
4.849330673E0,1.048300028E0,-2.091099977E0,-1.152499914E0
4.859330673E0,8.517999649E-1,-2.013599873E0,-1.167999983E0
4.869330673E0,3.815999925E-1,-1.837099910E0,-1.104799986E0
4.879330673E0,-8.229999989E-2,-1.935699940E0,-9.546999931E-1
4.889330673E0,-4.737999737E-1,-2.203899860E0,-9.228999615E-1
4.899330673E0,-6.754999757E-1,-2.486199856E0,-9.111999869E-1
4.909330673E0,-6.150999665E-1,-2.792999983E0,-7.919999957E-1
4.919330673E0,-2.048999965E-1,-2.829999924E0,-6.913999915E-1
4.929330673E0,2.465000004E-1,-2.451499939E0,-8.736999631E-1
4.939330673E0,7.714999914E-1,-1.942699909E0,-1.356899977E0
4.949330673E0,1.411799908E0,-1.484899998E0,-1.808200002E0
4.959330673E0,1.849699974E0,-1.092800021E0,-1.982699990E0
4.969330673E0,2.134599924E0,-5.928999782E-1,-1.966899991E0
4.979332236E0,2.013499975E0,-1.085999981E-1,-1.764400005E0
4.989330673E0,1.483199954E0,8.669999987E-2,-1.455199957E0
4.999330673E0,3.971000016E-1,2.840000018E-2,-1.166000009E0
5.009330673E0,-6.597999930E-1,-6.809999794E-2,-1.036700010E0
5.019330673E0,-1.437999964E0,-3.242000043E-1,-9.689999819E-1
5.029330673E0,-1.712799907E0,-5.989999771E-1,-1.033999920E0
5.039330673E0,-1.730299950E0,-8.136000037E-1,-8.596999645E-1
5.049330673E0,-1.406999946E0,-7.738999724E-1,-5.580999851E-1
5.059330673E0,-1.044399977E0,-8.051999807E-1,-4.625999928E-1
5.069330673E0,-7.656999826E-1,-9.260999560E-1,-4.016999900E-1
5.079330673E0,-4.882999957E-1,-6.365999579E-1,-6.013999581E-1
5.089330673E0,-1.527999938E-1,-1.791999936E-1,-1.010800004E0
5.099330673E0,3.297999799E-1,2.883000076E-1,-1.107100010E0
5.109330673E0,9.260999560E-1,6.808999777E-1,-1.220499992E0
5.119330673E0,9.064999819E-1,5.981999636E-1,-1.053900003E0
5.129330673E0,4.244999886E-1,2.606999874E-1,-5.558999777E-1
5.139330673E0,-2.809000015E-1,-1.387999952E-1,-5.080999732E-1
5.149330673E0,-9.420999885E-1,-4.201999903E-1,-4.535000026E-1
5.159330673E0,-1.320699930E0,-4.421999753E-1,-2.775999904E-1
5.169330673E0,-1.488199949E0,-3.638999760E-1,2.049999870E-2
5.179330673E0,-1.452199936E0,-4.138000011E-1,5.645999908E-1
5.189330673E0,-1.071599960E0,-6.018999815E-1,1.162099957E0
5.199330673E0,-6.794999838E-1,-9.690999985E-1,1.833199978E0
5.209330673E0,-3.992999792E-1,-9.596999884E-1,2.344099998E0
5.219330673E0,9.839999676E-2,-4.520999789E-1,2.356799841E0
5.229330673E0,8.719999790E-1,5.126999617E-1,1.979299903E0
5.239330673E0,1.714100003E0,1.424499989E0,1.232100010E0
5.249330673E0,2.216799974E0,1.881099939E0,2.511999905E-1
5.259330673E0,1.951299906E0,1.760100007E0,-3.202999830E-1
5.269330673E0,1.256199956E0,1.040199995E0,5.579999834E-2
5.279330673E0,1.919000000E-1,2.217999995E-1,3.393999934E-1
5.289330673E0,-8.134999871E-1,-2.507999837E-1,4.439999759E-1
5.299330673E0,-1.648800015E0,-5.985000134E-1,4.596999884E-1
5.309330673E0,-2.330800056E0,-7.684999704E-1,2.820999920E-1
5.319330673E0,-2.771399975E0,-9.210000038E-1,3.949999809E-1
5.329330673E0,-2.987699986E0,-1.197899938E0,9.760999680E-1
5.339330673E0,-3.133599997E0,-1.636600018E0,1.405200005E0
5.349330673E0,-3.067799807E0,-1.799099922E0,1.414199948E0
5.359330673E0,-2.602900028E0,-1.853899956E0,7.468000054E-1
5.369330673E0,-2.320799828E0,-1.659099936E0,-8.750000000E-1
5.379330673E0,-1.610499978E0,-6.617999673E-1,-1.208599925E0
5.389330673E0,-1.317999959E0,2.685999870E-1,-1.071900010E0
5.399330673E0,-1.417599916E0,6.184999943E-1,-7.378000021E-1
5.409330673E0,-1.670799971E0,5.106999874E-1,3.836999834E-1
5.419330673E0,-2.139799833E0,1.210999936E-1,1.776999950E0
5.429330673E0,-2.766700029E0,-5.956000090E-1,2.315599918E0
5.439330673E0,-3.149699926E0,-1.158800006E0,2.466399908E0
5.449330673E0,-3.313400030E0,-1.153100014E0,1.906599998E0
5.459330673E0,-2.996199846E0,-1.001600027E0,7.515999675E-1
5.469330673E0,-2.162099838E0,-7.608999610E-1,-5.275999904E-1
5.479330673E0,-9.281999469E-1,-4.240999818E-1,-1.634899974E0
5.489330673E0,1.669999957E-2,-3.190999925E-1,-1.893799901E0
5.499330673E0,1.829100013E0,9.059999883E-2,8.353999853E-1
5.509330673E0,3.564699888E0,1.288999915E0,5.973299980E0
5.519330673E0,4.085099697E0,2.567399979E0,9.703299522E0
5.529330673E0,2.517400026E0,2.393599987E0,4.762700081E0
5.539330673E0,7.459999919E-1,2.819999933E0,3.398199797E0
5.549330673E0,-2.829000056E-1,1.328999996E0,-1.386899948E0
5.559330673E0,-4.413999915E-1,3.143999875E-1,-3.350499868E0
5.569330673E0,7.699999958E-3,-2.487999946E-1,-1.639599919E0
5.579330673E0,1.714999974E-1,-5.467000008E-1,-4.509999976E-2
5.589330673E0,4.041000009E-1,-8.449999690E-1,8.150000125E-2
5.599330673E0,2.901999950E-1,-9.697999954E-1,4.788999856E-1
5.609330673E0,-4.696999788E-1,-6.365000010E-1,4.630999863E-1
5.619330673E0,-1.218599916E0,-1.222999990E-1,1.571999937E-1
5.629330673E0,-1.779599905E0,2.149999887E-1,4.294999838E-1
5.639330673E0,-1.798999906E0,4.805999994E-1,8.420000076E-1
5.649330673E0,-6.212999821E-1,7.009999752E-1,4.048999846E-1
5.659330673E0,-4.183000028E-1,5.411999822E-1,4.009999931E-1
5.669330673E0,-5.550999641E-1,3.075999916E-1,8.488999605E-1
5.679330673E0,-3.545999825E-1,3.199999928E-1,4.937999845E-1
5.689330673E0,-4.131999910E-1,4.272999763E-1,3.450999856E-1
5.699330673E0,-2.723999918E-1,3.526999950E-1,3.938999772E-1
5.709330673E0,1.599999890E-2,2.524999976E-1,2.897000015E-1
5.719330673E0,4.713999927E-1,1.779999882E-1,-1.013000011E-1
5.729330673E0,4.499999881E-1,-9.529999644E-2,-1.909999996E-1
5.739330673E0,1.706999987E-1,-5.528999567E-1,-9.659999609E-2
5.749330673E0,1.370999962E-1,-7.960999608E-1,-4.901999831E-1
5.759330673E0,1.749999970E-1,-7.012000084E-1,-4.784999788E-1
5.769330673E0,6.577000022E-1,-5.841000080E-1,6.599999964E-3
5.779330673E0,1.187799931E0,-7.064999938E-1,1.990000010E-1
5.789330673E0,1.173399925E0,-9.842000008E-1,4.319999740E-2
5.799330673E0,6.705999970E-1,-4.671999812E-1,-2.662999928E-1
5.809330673E0,6.039999723E-1,-5.194000006E-1,-1.238999963E-1
5.819330673E0,5.313000083E-1,-8.940999508E-1,-8.596999645E-1
5.829330673E0,7.629999518E-2,-1.389099956E0,-1.753600001E0
5.839330673E0,-2.030999959E-1,-2.024199963E0,-1.909199953E0
5.849330673E0,-4.703999758E-1,-1.930499911E0,-6.001999974E-1
5.859330673E0,-7.246999741E-1,-8.218999505E-1,-6.799999624E-3
5.869330673E0,-6.434000134E-1,2.630999982E-1,1.169999957E0
5.879330673E0,-3.102999926E-1,4.522999823E-1,1.690299988E0
5.889330673E0,-4.230999947E-1,1.070000008E-1,1.212899923E0
5.899330673E0,-8.264999986E-1,-3.324999809E-1,5.708999634E-1
5.909330673E0,-1.243600011E0,-1.035699964E0,7.687999606E-1
5.919330673E0,-1.901600003E0,-2.037699938E0,6.510999799E-1
5.929330673E0,-1.995700002E0,-1.951799989E0,1.776999980E-1
5.939330673E0,-1.175099969E0,-1.243999958E0,-3.244999945E-1
5.949330673E0,-2.780999839E-1,-7.164999843E-1,-1.667999923E-1
5.959330673E0,7.716000080E-1,-2.089999914E-1,-7.669999450E-2
5.969330673E0,1.195500016E0,-2.031999975E-1,3.816999793E-1
5.979330673E0,1.191900015E0,-1.300000004E-3,3.100000024E-1
5.989330673E0,1.159699917E0,3.234999776E-1,1.714999974E-1
5.999330673E0,1.154699922E0,6.444000006E-1,1.400000006E-1
6.009330673E0,1.263299942E0,7.447999716E-1,7.490000129E-2
6.019330673E0,9.648999572E-1,5.374000072E-1,1.999999862E-3
6.029330673E0,3.373000026E-1,9.699999541E-2,-2.143999934E-1
6.039330673E0,-2.141999900E-1,-6.629999727E-2,-5.655999780E-1
6.049330673E0,-5.401999950E-1,-7.479999959E-2,-7.563999891E-1
6.059330673E0,-8.071999550E-1,3.260000050E-2,-6.969000101E-1
6.069330673E0,-9.074999690E-1,2.173999995E-1,-5.633999705E-1
6.079330673E0,-8.899999857E-1,2.126999944E-1,-3.623999953E-1
6.089330673E0,-1.040599942E0,1.295000017E-1,-1.620000005E-1
6.099330673E0,-1.240299940E0,-3.499999875E-3,-1.419999897E-1
6.109330673E0,-1.350799918E0,-2.261999995E-1,3.103999794E-1
6.119330673E0,-1.733999968E0,-3.247999847E-1,5.681999922E-1
6.129330673E0,-1.848699927E0,-4.483999908E-1,6.055999994E-1
6.139330673E0,-1.506699920E0,-3.843999803E-1,3.271999955E-1
6.149330673E0,-1.209399939E0,-4.527999759E-1,4.431999922E-1
6.159330673E0,-1.163800001E0,-5.033000112E-1,2.960000001E-2
6.169330673E0,-1.221099973E0,-3.802999854E-1,-2.583999932E-1
6.179330673E0,-8.190999627E-1,-1.089999974E-1,-7.057999969E-1
6.189330673E0,-5.819999799E-2,1.718000025E-1,-1.121899962E0
6.199330673E0,5.016999841E-1,2.113000005E-1,-1.059299946E0
6.209330673E0,7.091000080E-1,4.239999950E-1,-8.364999890E-1
6.219330673E0,1.455099940E0,6.933000088E-1,-7.285999656E-1
6.229330673E0,1.399399996E0,3.249999881E-1,-6.956999898E-1
6.239330673E0,9.098999500E-1,6.549999863E-2,-4.355999827E-1
6.249330673E0,1.389500022E0,-1.233999953E-1,-4.679999948E-1
6.259330673E0,2.475999892E-1,-2.757999897E-1,1.219999976E-2
6.269330673E0,4.001999795E-1,-2.210999876E-1,-3.048999906E-1
6.279330673E0,1.072399974E0,-3.549999744E-2,-4.012999833E-1
6.289330673E0,1.351400018E0,-4.230000079E-2,-4.679999873E-2
6.299330673E0,1.391600013E0,-7.939999551E-2,-3.502999842E-1
6.309330673E0,1.332700014E0,1.920999885E-1,-8.545999527E-1
6.319330673E0,1.185299993E0,4.640999734E-1,-1.151399970E0
6.329330673E0,1.096199989E0,5.483999848E-1,-7.943999767E-1
6.339330673E0,1.163800001E0,4.141999781E-1,-3.409999982E-2
6.349330673E0,1.212499976E0,3.145000041E-1,3.637000024E-1
6.359330673E0,1.035400033E0,4.690000042E-2,3.516999781E-1
6.369330673E0,8.865000010E-1,-4.233999848E-1,-3.240999877E-1
6.379330673E0,8.731999993E-1,-8.980999589E-1,-6.352999806E-1
6.389330673E0,8.667999506E-1,-1.140100002E0,-6.152999997E-1
6.399330673E0,4.369999766E-1,-1.289399981E0,-4.537999928E-1
6.409330673E0,4.490000010E-1,-1.165599942E0,8.850000054E-2
6.419330673E0,8.355000019E-1,-8.802999854E-1,4.366999865E-1
6.429330673E0,9.886999726E-1,-6.000999808E-1,1.152499914E0
6.439330673E0,7.608999610E-1,-8.521999717E-1,1.595499992E0
6.449330673E0,3.982999921E-1,-8.621000051E-1,1.057799935E0
6.459330673E0,3.032000065E-1,-8.648999929E-1,3.102999926E-1
6.469330673E0,-2.023999989E-1,-1.083199978E0,-2.945999801E-1
6.479330673E0,-7.766999602E-1,-1.419499993E0,-5.740000010E-1
6.489330673E0,-7.870999575E-1,-1.488600016E0,-7.784999609E-1
6.499330673E0,-3.809999824E-1,-1.026700020E0,-1.009500027E0
6.509330673E0,1.162999943E-1,-3.747999966E-1,-9.101999998E-1
6.519330673E0,4.563999772E-1,-3.759999946E-2,-3.516999781E-1
6.529330673E0,5.600999594E-1,1.131999940E-1,4.339999706E-2
6.539330673E0,7.217999697E-1,3.529999852E-1,1.692999899E-1
6.549330673E0,1.128600001E0,6.504999995E-1,4.711999893E-1
6.559330673E0,1.579699993E0,9.070999622E-1,3.362999856E-1
6.569330673E0,2.038300037E0,1.079900026E0,2.866999805E-1
6.579330673E0,2.041399956E0,1.103999972E0,2.870999873E-1
6.589330673E0,1.766399980E0,8.215999603E-1,6.410999894E-1
6.599330673E0,1.774899960E0,7.660999894E-1,4.143999815E-1
6.609330673E0,2.028499842E0,8.677999973E-1,1.821999997E-1
6.619330673E0,2.005800009E0,9.339999557E-1,2.569999993E-1
6.629330673E0,1.676199913E0,9.177999496E-1,5.271999836E-1
6.639330673E0,1.187299967E0,8.082999587E-1,1.039399981E0
6.649330673E0,5.400999784E-1,7.407999635E-1,1.174399972E0
6.659330673E0,-8.689999580E-2,7.504000068E-1,6.100000143E-1
6.669330673E0,-1.634999961E-1,-1.154999956E-1,1.625800014E0
6.679330673E0,-1.893000007E-1,-1.222999990E-1,1.597000003E0
6.689330673E0,-3.949999809E-2,-3.235999942E-1,9.804999828E-1
6.699330673E0,1.129999943E-2,-7.684999704E-1,5.392000079E-1
6.709330673E0,1.700999886E-1,-9.486999512E-1,1.330000013E-1
6.719330673E0,3.990999758E-1,-1.033999920E0,2.080000006E-2
6.729330673E0,3.367999792E-1,-9.680999517E-1,2.687000036E-1
6.739330673E0,-3.559999913E-2,-5.953999758E-1,8.344999552E-1
6.749330673E0,-4.530999959E-1,-2.405999899E-1,1.559199929E0
6.759330673E0,-8.570999503E-1,2.136999965E-1,2.286700010E0
6.769330673E0,-9.335999489E-1,8.550999761E-1,2.910899878E0
6.779330673E0,-1.075500011E0,1.154500008E0,3.426800013E0
6.789330673E0,-5.148999691E-1,1.516399980E0,3.506899834E0
6.799330673E0,5.163999796E-1,1.562500000E0,3.813399792E0
6.809330673E0,1.601599932E0,1.132900000E0,3.986699820E0
6.819330673E0,2.491299868E0,8.258000016E-1,3.554099798E0
6.829330673E0,2.790199995E0,2.560999990E-1,3.116499901E0
6.839330673E0,2.693799973E0,-4.458999932E-1,1.842599988E0
6.849330673E0,2.319599867E0,-9.866999984E-1,4.417999983E-1
6.859330673E0,1.991400003E0,-2.015899897E0,-6.441999674E-1
6.869330673E0,6.108999848E-1,-3.367899895E0,-1.123499990E0
6.879330673E0,-2.963999808E-1,-3.838299990E0,-3.792699814E0
6.889330673E0,-7.349999994E-2,-3.089799881E0,-6.320299625E0
6.899330673E0,-1.015999988E-1,-2.655900002E0,-5.712499619E0
6.909330673E0,-6.680999994E-1,-2.543299913E0,-5.179399967E0
6.919330673E0,-1.112599969E0,-1.692499995E0,-4.429399967E0
6.929330673E0,-1.273000002E0,-6.893000007E-1,-3.050099850E0
6.939330673E0,-1.132900000E0,-9.332000017E-1,-6.667000055E-1
6.949330673E0,-8.226000071E-1,-1.185400009E0,5.803999901E-1
6.959330673E0,-9.248999953E-1,-2.452499866E0,2.480700016E0
6.969330673E0,-1.315799952E0,-3.465499878E0,3.509299994E0
6.979330673E0,-4.433999956E-1,-1.738299966E0,1.849299908E0
6.989330673E0,1.404999942E-1,-1.146199942E0,4.000999928E-1
6.999330673E0,-4.734999835E-1,-2.345900059E0,-2.078000009E-1
7.009330673E0,-9.381999969E-1,-2.804199934E0,-1.805899978E0
7.019330673E0,-9.211999774E-1,-2.500399828E0,-2.865499973E0
7.029330673E0,-8.144999743E-1,-2.155699968E0,-2.653599977E0
7.039330673E0,-1.257200003E0,-1.951099992E0,-1.825799942E0
7.049330673E0,-2.236500025E0,-1.899899960E0,-8.192999959E-1
7.059330673E0,-3.065500021E0,-1.731799960E0,-3.621999919E-1
7.069330673E0,-2.997299910E0,-1.701999903E0,-7.041999698E-1
7.079330673E0,-2.578999996E0,-2.028800011E0,-7.912999988E-1
7.089330673E0,-2.217399836E0,-1.736999989E0,-7.134999633E-1
7.099330673E0,-1.702199936E0,-9.707999825E-1,-4.856999815E-1
7.109330673E0,-5.435000062E-1,-5.613999963E-1,1.909999922E-2
7.119330673E0,4.047999978E-1,-2.724999785E-1,1.720999926E-1
7.129330673E0,9.329999685E-1,-9.299999475E-2,3.461999893E-1
7.139330673E0,1.625699997E0,8.119999617E-2,6.359999776E-1
7.149330673E0,2.474900007E0,1.743000001E-1,9.910999537E-1
7.159330673E0,3.115299940E0,3.033999801E-1,2.100399971E0
7.169330673E0,2.978999853E0,1.163499951E0,3.180899858E0
7.179330673E0,4.334499836E0,1.087899923E0,9.267999530E-1
7.189330673E0,3.757299900E0,4.217999876E-1,-3.025999963E-1
7.199330673E0,3.005499840E0,1.832000017E-1,-2.558999956E-1
7.209330673E0,1.861899972E0,1.904999912E-1,-2.962000072E-1
7.219330673E0,7.721999884E-1,5.269999802E-2,-9.584999681E-1
7.229330673E0,1.040999964E-1,-2.714999914E-1,-1.611699939E0
7.239330673E0,-2.572999895E-1,-6.148999929E-1,-1.913199902E0
7.249330673E0,-7.252999544E-1,-8.255999684E-1,-2.027600050E0
7.259330673E0,-1.152899981E0,-9.098999500E-1,-2.049900055E0
7.269330673E0,-1.266399980E0,-9.120999575E-1,-2.046299934E0
7.279330673E0,-5.906999707E-1,-7.333999872E-1,-2.151200056E0
7.289330673E0,2.314999998E-1,-8.052999973E-1,-1.643399954E0
7.299330673E0,6.919999719E-1,-6.742999554E-1,-1.350399971E0
7.309330673E0,1.047500014E0,-6.768000126E-1,-1.056299925E0
7.319330673E0,1.199699998E0,-6.218000054E-1,-9.637999535E-1
7.329330673E0,1.088500023E0,-6.132999659E-1,-9.452999830E-1
7.339330673E0,8.091999888E-1,-5.922999978E-1,-8.406999707E-1
7.349330673E0,7.138999701E-1,-5.823999643E-1,-1.008800030E0
7.359330673E0,5.462999940E-1,-6.347999573E-1,-1.503899932E0
7.369330673E0,5.920000002E-2,-8.362999558E-1,-1.633199930E0
7.379330673E0,-6.299999952E-1,-1.117699981E0,-1.131899953E0
7.389330673E0,-9.516999722E-1,-1.361299992E0,-7.913999557E-1
7.399330673E0,-1.071399927E0,-1.560699940E0,-7.037999630E-1
7.409330673E0,-9.666000009E-1,-1.720899940E0,-5.004000068E-1
7.419330673E0,-7.706999779E-1,-1.904399991E0,-5.773999691E-1
7.429330673E0,-6.495000124E-1,-2.105499983E0,5.370000005E-2
7.439330673E0,-1.563399911E0,-1.975299954E0,-1.586999893E-1
7.449330673E0,-1.728599906E0,-1.792499900E0,5.828999877E-1
7.459330673E0,-1.034699917E0,-1.608500004E0,7.432999611E-1
7.469330673E0,1.771000028E-1,-1.137599945E0,1.192399979E0
7.479335361E0,-1.961999983E-1,-7.942999601E-1,-5.579999834E-2
7.489330673E0,-2.683999836E-1,-1.013700008E0,-2.543999851E-1
7.499330673E0,5.661999583E-1,-9.669999480E-1,1.045099974E0
7.509330673E0,1.057399988E0,-6.146999598E-1,1.324599981E0
7.519330673E0,1.656999946E0,-4.284999967E-1,8.003999591E-1
7.529330673E0,2.235199928E0,-3.312000036E-1,3.100999892E-1
7.539330673E0,2.591500044E0,-3.344999850E-1,5.680000037E-2
7.549330673E0,2.693699837E0,-4.215999842E-1,1.400000006E-1
7.559330673E0,2.266799927E0,-7.064999938E-1,5.044999719E-1
7.569330673E0,1.412199974E0,-1.004500031E0,1.011099935E0
7.579330673E0,6.654999852E-1,-8.303999901E-1,7.592999935E-1
7.589330673E0,2.644000053E-1,-6.277999878E-1,2.134999931E-1
7.599330673E0,1.987999976E-1,-6.940999627E-1,-2.272999883E-1
7.609330673E0,3.296999931E-1,-6.324999928E-1,-2.117999941E-1
7.619330673E0,2.520000041E-1,-5.148000121E-1,-1.349999905E-1
7.629330673E0,-1.358999908E-1,-4.790000021E-1,-1.607999951E-1
7.639330673E0,-4.393000007E-1,-6.193999648E-1,-4.820000008E-2
7.649330673E0,-2.610000074E-1,-5.031999946E-1,4.063999951E-1
7.659330673E0,1.799999969E-3,-4.454999864E-1,5.825999975E-1
7.669330673E0,2.289999872E-1,-5.810999870E-1,7.299999893E-2
7.679330673E0,-3.579999879E-2,-8.159999847E-1,-1.766999960E-1
7.689330673E0,-3.531999886E-1,-8.436999917E-1,-5.600999594E-1
7.699330673E0,-6.308999658E-1,-7.534999847E-1,-9.983999729E-1
7.709330673E0,-5.241999626E-1,-7.242999673E-1,-1.216400027E0
7.719330673E0,-4.062999785E-1,-5.708000064E-1,-1.198699951E0
7.729330673E0,-2.585999966E-1,-3.226999938E-1,-1.302099943E0
7.739330673E0,-4.299999774E-2,-1.856999993E-1,-1.265900016E0
7.749330673E0,1.976999938E-1,-1.239999980E-1,-1.205600023E0
7.759330673E0,4.605000019E-1,-1.098999977E-1,-1.144199967E0
7.769330673E0,-5.599999800E-2,-4.301999807E-1,-7.735999823E-1
7.779330673E0,-7.565999627E-1,-6.308999658E-1,-6.638999581E-1
7.789330673E0,-7.142999768E-1,-6.098999977E-1,-7.305999994E-1
7.799330673E0,-4.201999903E-1,-3.972999752E-1,-5.755999684E-1
7.809330673E0,4.270000011E-2,3.624999821E-1,4.911600113E0
7.819330673E0,7.360000163E-2,2.057399988E0,7.961099625E0
7.829330673E0,3.894999921E-1,2.554600000E0,4.531499863E0
7.839330673E0,1.381999999E-1,1.196599960E0,1.448799968E0
7.849330673E0,-2.610999942E-1,2.585999966E-1,-7.497000098E-1
7.859330673E0,-1.289600015E0,-1.048000008E-1,7.699999958E-2
7.869330673E0,-5.606999993E-1,3.032999933E-1,1.015100002E0
7.879330673E0,-1.401999891E-1,2.624000013E-1,-1.341499925E0
7.889330673E0,-1.806000024E-1,-1.544999927E-1,-2.198699951E0
7.899330673E0,-2.509999871E-1,-1.907999963E-1,-1.513799906E0
7.909330673E0,-2.311999947E-1,-2.479999885E-2,-6.754999757E-1
7.919330673E0,2.119999975E-1,1.853999943E-1,-5.013999939E-1
7.929330673E0,1.736999899E-1,4.342999756E-1,-2.565999925E-1
7.939330673E0,-4.360000044E-2,5.285999775E-1,-1.535999924E-1
7.949330673E0,-6.451999545E-1,6.147999763E-1,1.130999997E-1
7.959330673E0,-1.059800029E0,7.971999645E-1,4.749999940E-1
7.969330673E0,-1.068099976E0,9.242999554E-1,6.284999847E-1
7.979332236E0,-1.092199922E0,1.172299981E0,5.611999631E-1
7.989330673E0,-9.239999652E-1,1.125900030E0,2.220999897E-1
7.999330673E0,-4.804999828E-1,1.077600002E0,-2.184999883E-1
8.009330673E0,-2.597000003E-1,1.182099938E0,-4.822999835E-1
8.019330673E0,4.122000039E-1,9.742999673E-1,-3.960999846E-1
8.029330673E0,7.877999544E-1,1.164499998E0,2.349999920E-2
8.039330673E0,1.160399914E0,9.687999487E-1,2.568999827E-1
8.049330673E0,1.716699958E0,1.122399926E0,2.345999926E-1
8.059330673E0,1.801999956E-1,-5.115000010E-1,4.169999808E-2
8.069330673E0,4.560000002E-1,-6.327999830E-1,-9.648999572E-1
8.079330673E0,1.173900008E0,-1.137199998E0,-1.223500013E0
8.089330673E0,1.692099929E0,-1.087499976E0,-6.773999929E-1
8.099330673E0,1.762799978E0,-1.346599936E0,-3.328999877E-1
8.109330673E0,1.559099913E0,-2.284600019E0,-2.990999818E-1
8.119330673E0,1.038100004E0,-2.575799942E0,-3.181000054E-1
8.129330673E0,1.141999960E-1,-2.035500050E0,-6.398000121E-1
8.139330673E0,-2.132999897E-1,-1.422999978E0,1.348000020E-1
8.149332236E0,-3.613999784E-1,-6.037999988E-1,3.235999942E-1
8.159330673E0,-3.484999835E-1,-8.514999747E-1,-5.133999586E-1
8.169330673E0,-7.584999800E-1,-1.239499927E0,-3.762999773E-1
8.179330673E0,-2.469999939E-1,-1.113600016E0,-3.192999959E-1
8.189330673E0,3.033999801E-1,-8.567999601E-1,-2.324000001E-1
8.199330673E0,2.157999873E-1,-1.048599958E0,-2.983999848E-1
8.209330673E0,-1.679999940E-2,-1.134899974E0,-1.050400019E0
8.219330673E0,3.842999935E-1,-8.750000000E-1,-1.087999940E0
8.229330673E0,9.084999561E-1,3.229999840E-1,-1.771099925E0
8.239330673E0,1.607699990E0,1.204499960E0,-5.873000026E-1
8.249330673E0,4.513099670E0,1.341300011E0,5.410999656E-1
8.259330673E0,1.510699987E0,-8.478999734E-1,9.819999933E-1
8.269330673E0,-2.829000056E-1,-1.201200008E0,-1.542699933E0
8.279330673E0,-3.122999966E-1,-2.979999967E-2,-7.489999533E-1
8.289330673E0,1.481999993E0,8.452999592E-1,1.389999986E-1
8.299330673E0,1.616299987E0,1.184199929E0,2.866999805E-1
8.309330673E0,7.434999943E-1,9.229999781E-1,1.127999946E-1
8.319330673E0,1.366999894E-1,6.712999940E-1,-2.811000049E-1
8.329330673E0,-9.224999547E-1,3.427000046E-1,-1.769999973E-2
8.339330673E0,4.215999842E-1,6.403999925E-1,-4.050000012E-2
8.349330673E0,6.861999631E-1,9.975000024E-1,4.044999778E-1
8.359330673E0,-3.189999983E-2,7.486999631E-1,3.902999759E-1
8.369330673E0,-1.389999967E-2,7.057999969E-1,3.394999802E-1
8.379330673E0,4.820000008E-2,1.402099967E0,7.631999850E-1
8.389330673E0,1.612000018E-1,1.468999982E0,4.949999750E-1
8.399330673E0,1.074999928E0,1.921199918E0,2.592000067E-1
8.409330673E0,1.661999971E-1,1.292599916E0,-1.626999974E-1
8.419330673E0,2.827999890E-1,1.118799925E0,-4.639999866E-1
8.429330673E0,3.149999976E-1,4.590999782E-1,-7.321999669E-1
8.439330673E0,-1.018800020E0,-2.485999912E-1,-6.678000093E-1
8.449330673E0,-6.248999834E-1,-1.860999912E-1,-1.192399979E0
8.459330673E0,-2.830999792E-1,-1.621999890E-1,-8.837999701E-1
8.469330673E0,4.152999818E-1,-5.379999876E-1,-7.139999866E-1
8.479343173E0,1.044199944E0,-4.240999818E-1,-3.245999813E-1
8.489330673E0,9.264000058E-1,-3.786000013E-1,7.829999924E-2
8.499330673E0,8.756999969E-1,-4.239999950E-1,1.856999993E-1
8.509330673E0,1.100000024E0,-4.037999809E-1,5.507000089E-1
8.519330673E0,9.542999864E-1,-1.649999917E-1,1.022999957E-1
8.529330673E0,1.009599924E0,4.279999807E-2,-3.294000030E-1
8.539330673E0,9.099999666E-1,-4.899999872E-2,-8.940000087E-2
8.549330673E0,3.920999765E-1,-2.236999869E-1,1.295000017E-1
8.559330673E0,1.150000002E-2,7.763999701E-1,1.221999973E-1
8.569330673E0,1.254999936E-1,1.546399951E0,-5.339999795E-1
8.579330673E0,1.769599915E0,-1.532000005E-1,8.428999782E-1
8.589330673E0,1.489899993E0,-7.188999653E-1,1.817499995E0
8.599330673E0,6.190999746E-1,1.553200006E0,1.191499949E0
8.609332236E0,6.189999729E-2,1.594399929E0,3.516099930E0
8.619330673E0,3.665999770E-1,2.158200026E0,3.631500006E0
8.629330673E0,7.425000072E-1,2.684000015E0,5.226099968E0
8.639330673E0,1.699399948E0,6.814999580E-1,6.440099716E0
8.649330673E0,2.555500031E0,-1.101400018E0,5.647000074E-1
8.659330673E0,3.818599939E0,-1.085199952E0,-5.977799892E0
8.669330673E0,1.965399981E0,-2.405499935E0,-5.569999695E0
8.679330673E0,3.372799873E0,-2.477999926E0,-8.903299332E0
8.689330673E0,2.303200006E0,-2.506099939E0,-6.371999741E0
8.699330673E0,2.193999887E-1,-2.287600040E0,-1.420199990E0
8.709330673E0,-2.346400023E0,-2.512899876E0,3.397899866E0
8.719330673E0,-2.603899956E0,-2.733899832E0,5.439399719E0
8.729330673E0,-1.707700014E0,-2.838399887E0,3.979399920E0
8.739330673E0,-8.234999776E-1,-2.636499882E0,1.128899932E0
8.749330673E0,-1.307999939E-1,-1.919600010E0,-1.950299978E0
8.759330673E0,7.039999962E-2,-1.242399931E0,-4.195199966E0
8.769330673E0,2.173999995E-1,-3.860999942E-1,-4.326799870E0
8.779330673E0,3.278000057E-1,1.498999894E-1,-2.489500046E0
8.789330673E0,4.719999805E-2,2.073999941E-1,-7.649999857E-1
8.799330673E0,-3.578999937E-1,9.499999695E-3,5.525000095E-1
8.809330673E0,-5.942999721E-1,-4.574999809E-1,5.900999904E-1
8.819330673E0,-7.382000089E-1,-1.216899991E0,-1.694999933E-1
8.829330673E0,-4.623999894E-1,-1.700299978E0,-8.167999983E-1
8.839330673E0,-3.950999975E-1,-1.788499951E0,-8.130999804E-1
8.849330673E0,-5.352999568E-1,-1.833899975E0,-1.107999980E-1
8.859330673E0,-4.372999966E-1,-1.425499916E0,6.431999803E-1
8.869330673E0,-2.850999832E-1,-9.921999574E-1,8.984999657E-1
8.879330673E0,8.179999888E-2,-3.361999989E-1,5.597000122E-1
8.889330673E0,2.462999970E-1,-6.379999965E-2,2.313999981E-1
8.899330673E0,1.832000017E-1,-7.509999722E-2,-1.191999987E-1
8.909330673E0,1.955000013E-1,-7.580000162E-2,-4.934999943E-1
8.919330673E0,1.384000033E-1,-3.704999983E-1,6.149999797E-2
8.929330673E0,2.899999917E-1,-3.032000065E-1,3.513000011E-1
8.939330673E0,4.640999734E-1,-4.035999775E-1,2.754999995E-1
8.949330673E0,4.807999730E-1,-6.315000057E-1,-2.371999919E-1
8.959330673E0,4.563999772E-1,-7.900999784E-1,-4.086999893E-1
8.969330673E0,3.959999979E-1,-8.712999821E-1,-1.976999938E-1
8.979330673E0,4.734999835E-1,-7.565999627E-1,6.399999838E-3
8.989330673E0,6.836000085E-1,-4.865999818E-1,4.699999932E-3
8.999330673E0,5.810999870E-1,-2.170999944E-1,-1.362999976E-1
9.009330673E0,5.374000072E-1,-6.499999668E-3,-2.992999852E-1
9.019330673E0,6.590999961E-1,1.062999964E-1,-5.809999704E-1
9.029330673E0,5.214999914E-1,5.389999971E-2,-7.750999928E-1
9.039330673E0,6.847000122E-1,3.360999823E-1,-1.005200028E0
9.049330673E0,9.028999805E-1,4.724999964E-1,-7.204999924E-1
9.059330673E0,8.782999516E-1,2.094999999E-1,-6.013000011E-1
9.069330673E0,8.157999516E-1,1.779999956E-2,-7.217999697E-1
9.079330673E0,7.906999588E-1,-1.240999997E-1,-7.450999618E-1
9.089330673E0,6.423999667E-1,-2.839999795E-1,-6.388999820E-1
9.099330673E0,6.108999848E-1,-4.433999956E-1,-5.480999947E-1
9.109330673E0,8.553999662E-1,-1.718999892E-1,-6.007999778E-1
9.119330673E0,9.917999506E-1,1.683000028E-1,-6.315000057E-1
9.129330673E0,1.085199952E0,3.919999897E-1,-5.519999862E-1
9.139330673E0,1.064899921E0,6.371999979E-1,-2.651000023E-1
9.149330673E0,9.302999973E-1,7.077999711E-1,2.080999911E-1
9.159330673E0,8.907999992E-1,7.888999581E-1,5.638999939E-1
9.169330673E0,5.295999646E-1,3.559999913E-2,2.576999962E-1
9.179330673E0,3.621999919E-1,-9.554999471E-1,-4.699999988E-1
9.189330673E0,2.543999851E-1,-1.204699993E0,-7.430999875E-1
9.199330673E0,7.305999994E-1,-8.559999615E-2,-6.613999605E-1
9.209330673E0,1.025099993E0,8.652999997E-1,-8.574999571E-1
9.219330673E0,6.358999610E-1,1.229900002E0,-9.487999678E-1
9.229330673E0,1.107499957E0,1.820799947E0,-1.124899983E0
9.239330673E0,1.199000001E0,2.423599958E0,-1.186100006E0
9.249330673E0,1.150799990E0,2.853600025E0,-1.531799912E0
9.259330673E0,4.069999754E-1,2.305500031E0,-1.818199992E0
9.269330673E0,-4.456000030E-1,7.276999950E-1,-1.120299935E0
9.279330673E0,-3.553999960E-1,-4.342999756E-1,-3.874999881E-1
9.289330673E0,-2.240999937E-1,-1.252099991E0,-1.237999946E-1
9.299330673E0,-2.865999937E-1,-1.448799968E0,4.739999771E-2
9.309330673E0,1.131099939E0,-1.190799952E0,4.169999957E-1
9.319330673E0,2.536299944E0,-1.282599926E0,4.829999804E-1
9.329330673E0,2.654999971E0,-1.986299992E0,6.211999655E-1
9.339330673E0,1.995000005E0,-1.689499974E0,1.136899948E0
9.349330673E0,1.511899948E0,-5.404999852E-1,8.093000054E-1
9.359330673E0,5.295999646E-1,-5.921999812E-1,1.955000013E-1
9.369330673E0,-2.213999927E-1,-1.054899931E0,-4.514999986E-1
9.379330673E0,-2.551999986E-1,-1.442499995E0,-9.104999900E-1
9.389330673E0,-1.546999961E-1,-1.756500006E0,-1.083899975E0
9.399330673E0,1.489999890E-1,-1.506299973E0,-9.042999744E-1
9.409330673E0,1.002999991E-1,-1.033399940E0,-7.250999808E-1
9.419330673E0,4.918999970E-1,-3.273999989E-1,-5.439000130E-1
9.429330673E0,3.987999856E-1,-2.014999986E-1,-5.690000057E-1
9.439330673E0,1.981000006E-1,-2.423999906E-1,-6.150999665E-1
9.449330673E0,1.700999886E-1,-3.635999858E-1,-6.933999658E-1
9.459330673E0,6.503999829E-1,-1.827999949E-1,-5.429999828E-1
9.469330673E0,8.386999965E-1,-1.592999995E-1,-4.168999791E-1
9.479335361E0,1.039799929E0,2.193000019E-1,-4.793999791E-1
9.489330673E0,1.018599987E0,5.805999637E-1,-3.380999863E-1
9.499330673E0,9.884999990E-1,1.179899931E0,-3.572999835E-1
9.509330673E0,1.086300015E0,2.184099913E0,-5.184000134E-1
9.519330673E0,1.376099944E0,2.799899817E0,-8.310999870E-1
9.529330673E0,1.701799989E0,2.686300039E0,-7.951999903E-1
9.539330673E0,1.844799995E0,1.137599945E0,-9.710999727E-1
9.549330673E0,1.282199979E0,-2.209999971E-2,-7.702999711E-1
9.559330673E0,5.011000037E-1,-6.259999871E-1,-2.723000050E-1
9.569330673E0,9.529999644E-2,-7.761999965E-1,2.360000014E-1
9.579330673E0,-1.570999920E-1,-1.143100023E0,2.978999913E-1
9.589330673E0,-3.373999894E-1,-1.355599999E0,-2.821999788E-1
9.599330673E0,-3.660999835E-1,-1.101999998E0,-5.540999770E-1
9.609330673E0,-5.285999775E-1,-1.067799926E0,-3.400999904E-1
9.619330673E0,-4.903999865E-1,-1.213699937E0,-2.294999957E-1
9.629330673E0,-1.911999881E-1,-9.802999496E-1,-1.943999976E-1
9.639330673E0,3.373000026E-1,-3.373999894E-1,-7.069999725E-2
9.649330673E0,8.362999558E-1,3.237999976E-1,4.819999933E-1
9.659330673E0,9.356999993E-1,7.498999834E-1,9.727999568E-1
9.669330673E0,6.854000092E-1,6.672999859E-1,9.726999998E-1
9.679330673E0,3.870999813E-1,5.254999995E-1,3.923999965E-1
9.689330673E0,3.965999782E-1,6.590999961E-1,-2.856000066E-1
9.699330673E0,7.376999855E-1,1.263599992E0,-9.584999681E-1
9.709330673E0,7.974999547E-1,1.486899972E0,-1.332299948E0
9.719330673E0,8.172000051E-1,1.554799914E0,-1.243399978E0
9.729330673E0,4.013999999E-1,1.329999924E0,-9.584999681E-1
9.739330673E0,1.720999926E-1,1.311200023E0,-7.100999951E-1
9.749330673E0,3.903999925E-1,1.154199958E0,-2.795000076E-1
9.759330673E0,1.509699941E0,1.554700017E0,2.368000001E-1
9.769330673E0,1.800300002E0,1.905200005E0,-1.018399954E0
9.779330673E0,1.260999918E0,1.676899910E0,-1.116699934E0
9.789330673E0,4.606999755E-1,4.764999747E-1,-8.938999772E-1
9.799330673E0,1.001999974E-1,-1.381999999E-1,-1.797999889E-1
9.809330673E0,-9.510000050E-2,-1.029299974E0,8.064999580E-1
9.819330673E0,7.149999738E-1,-4.213999808E-1,1.417699933E0
9.829330673E0,2.044699907E0,-1.863999963E-1,5.394999981E-1
9.839330673E0,2.601099968E0,-1.519999981E0,-5.279999971E-2
9.849330673E0,2.552399874E0,-1.745599985E0,-7.518000007E-1
9.859330673E0,1.858199954E0,-2.148200035E0,-1.016399980E0
9.869330673E0,1.468599916E0,-1.659599900E0,-4.915999770E-1
9.879330673E0,8.898999691E-1,-1.200899959E0,-8.184999824E-1
9.889330673E0,1.670999974E-1,-1.193799973E0,-1.887399912E0
9.899330673E0,-2.662000060E-1,-1.148800015E0,-1.455699921E0
9.909330673E0,-3.323999941E-1,-9.279999733E-1,-7.533999681E-1
9.919330673E0,-3.304999769E-1,-4.214999974E-1,-6.486999989E-1
9.929330673E0,-3.387999833E-1,-1.701999903E-1,-6.665999889E-1
9.939330673E0,-4.239999950E-1,6.983999610E-1,-3.622999787E-1
9.949330673E0,-5.561000109E-1,1.919600010E0,-7.819999754E-2
9.959330673E0,-5.360999703E-1,2.708699942E0,2.742999792E-1
9.969330673E0,-3.483999968E-1,3.369699955E0,6.960999966E-1
9.979336923E0,2.354999930E-1,3.582000017E0,1.419600010E0
9.989330673E0,4.307999909E-1,3.463799953E0,1.962499976E0
9.999330673E0,5.199999809E-1,3.791199923E0,1.827699900E0
1.000933067E1,1.185500026E0,4.407099724E0,1.168699980E0
1.001933067E1,2.221600056E0,4.749399662E0,1.247999966E-1
1.002933067E1,2.841099977E0,3.865000010E0,-7.978000045E-1
1.003933067E1,2.013099909E0,-2.319099903E0,-7.089999914E-1
1.004933067E1,2.735599995E0,-1.794960022E1,-3.131299973E0
1.005933067E1,2.980000019E0,-2.213789940E1,-3.295599937E0
1.006933067E1,-2.348299980E0,-1.269799995E1,-1.643000007E0
1.007933067E1,-4.875599861E0,-4.076499939E0,3.172999918E-1
1.008933067E1,-5.337899685E0,4.526999891E-1,3.031599998E0
1.009933067E1,-4.931699753E0,2.217599869E0,3.697899818E0
1.010933067E1,-4.096699715E0,2.671999931E0,2.263099909E0
1.011933067E1,-3.163800001E0,1.659099936E0,8.300999999E-1
1.012933067E1,-1.533599973E0,6.096999645E-1,6.729999930E-2
1.013933067E1,4.856999815E-1,4.199999943E-2,-3.786000013E-1
1.014933067E1,1.462999940E0,-3.102000058E-1,-9.301999807E-1
1.015933067E1,1.550999999E0,-2.131000012E-1,-1.314499974E0
1.016933067E1,1.342999935E0,5.810000002E-2,-1.152699947E0
1.017933067E1,1.317699909E0,1.997999996E-1,-4.570999742E-1
1.018933067E1,1.418599963E0,1.341999918E-1,4.826999903E-1
1.019933067E1,1.288800001E0,-8.889999986E-2,1.345899940E0
1.020933067E1,1.141600013E0,-6.689999998E-2,1.753899932E0
1.021933067E1,7.805999517E-1,2.202999890E-1,1.653599977E0
1.022933067E1,3.632999957E-1,5.278999805E-1,1.348899961E0
1.023933067E1,1.079999935E-2,9.145999551E-1,8.109999895E-1
1.024933067E1,-2.250999957E-1,1.134999990E0,3.856000006E-1
1.025933067E1,-3.721999824E-1,1.424199939E0,8.559999615E-2
1.026933067E1,-6.420999765E-1,1.418200016E0,-1.536999941E-1
1.027933067E1,-8.348000050E-1,1.334299922E0,-3.843999803E-1
1.028933067E1,-1.024199963E0,8.957999945E-1,-5.906999707E-1
1.029933067E1,-1.126399994E0,1.718999892E-1,-6.164999604E-1
1.030933067E1,-1.228899956E0,-6.901999712E-1,-5.605999827E-1
1.031933067E1,-1.478799939E0,-1.268599987E0,-8.464999795E-1
1.032933067E1,-1.421100020E0,-1.553799987E0,-5.677999854E-1
1.033933067E1,-1.558399916E0,-1.281399965E0,1.300000004E-3
1.034933067E1,-1.725499988E0,-8.241999745E-1,8.313999772E-1
1.035933067E1,-1.498600006E0,-7.014999986E-1,1.586799979E0
1.036933067E1,-1.105700016E0,-6.197999716E-1,2.397699833E0
1.037933067E1,-9.578999877E-1,-2.502999902E-1,3.135699987E0
1.038933067E1,-1.203699946E0,-6.809999794E-2,3.359999895E0
1.039933067E1,-1.913499951E0,-8.499999531E-3,2.621000051E0
1.040933067E1,-2.803999901E0,-5.249999762E-1,1.326900005E0
1.041933067E1,-3.467399836E0,-1.313399911E0,2.451999933E-1
1.042933067E1,-3.918699980E0,-1.824499965E0,-5.942999721E-1
1.043933067E1,-4.097799778E0,-2.255800009E0,-1.033200026E0
1.044933067E1,-3.990700006E0,-2.559399843E0,-7.687000036E-1
1.045933067E1,-3.900899887E0,-3.059599876E0,3.606999815E-1
1.046933067E1,-4.123199940E0,-3.883099794E0,1.820699930E0
1.047933067E1,-4.457299709E0,-4.930099964E0,3.343299866E0
1.048933067E1,-4.356999874E0,-5.471999645E0,4.634299755E0
1.049933067E1,-3.412199974E0,-5.155600071E0,5.837899685E0
1.050933067E1,-2.651700020E0,-4.302899837E0,6.620199680E0
1.051933067E1,-2.551899910E0,-3.407799959E0,6.702099800E0
1.052933067E1,-2.962999821E0,-1.912400007E0,6.695999622E0
1.053933067E1,-3.045899868E0,-1.135900021E0,6.774699688E0
1.054933067E1,-3.166599989E0,-3.073000014E-1,5.230799675E0
1.055933067E1,-2.858000040E0,1.288999915E-1,3.049199820E0
1.056933067E1,-2.414899826E0,-5.329999924E-1,7.744999528E-1
1.057933067E1,-1.797099948E0,-2.030099869E0,-1.144299984E0
1.058933067E1,-1.369300008E0,-3.658599854E0,-1.719799995E0
1.059933067E1,-5.029000044E-1,-4.459599972E0,-2.237999916E0
1.060933067E1,6.768000126E-1,-4.226299763E0,-2.762399912E0
1.061933067E1,1.510800004E0,-3.232999802E0,-3.064299822E0
1.062933067E1,2.344699860E0,-1.774699926E0,-3.705399990E0
1.063933067E1,3.312099934E0,-5.072999597E-1,-3.664399862E0
1.064933067E1,3.819499969E0,-4.521999955E-1,-4.369899750E0
1.065933067E1,3.836099863E0,-1.107599974E0,-5.913499832E0
1.066933067E1,3.741199970E0,-2.148499966E0,-6.544099808E0
1.067933067E1,2.054699898E0,-3.711699963E0,-4.016999722E0
1.068933067E1,-1.178099990E0,-4.426399708E0,2.068699837E0
1.069933067E1,-3.475399971E0,-3.921899796E0,6.622900009E0
1.070933067E1,-3.366899967E0,-2.559599876E0,4.727799892E0
1.071933067E1,-9.678999782E-1,-1.427099943E0,-7.639999688E-2
1.072933067E1,1.246999979E0,-7.317000031E-1,-4.792399883E0
1.073933067E1,3.730700016E0,1.894000024E-1,-4.779099941E0
1.074933067E1,5.139699936E0,5.740000010E-1,-3.126299858E0
1.075933067E1,5.448499680E0,8.302999735E-1,-2.230000019E0
1.076933067E1,4.585499763E0,1.217499971E0,-2.017600060E0
1.077933067E1,3.832799911E0,1.721199989E0,-1.525699973E0
1.078933067E1,3.681900024E0,2.005399942E0,-1.274899960E0
1.079933067E1,2.842700005E0,2.260499954E0,-9.086999893E-1
1.080933067E1,3.375900030E0,2.259399891E0,-1.699599981E0
1.081933067E1,4.238199711E0,2.528800011E0,-2.083899975E0
1.082933067E1,5.082399845E0,2.817999840E0,-3.098399878E0
1.083933067E1,5.552799702E0,3.479799986E0,-3.700299978E0
1.084933067E1,5.807199955E0,3.901999950E0,-3.837299824E0
1.085933067E1,5.821799755E0,4.240299702E0,-4.036699772E0
1.086933067E1,5.602200031E0,4.346300125E0,-4.032400131E0
1.087933067E1,4.703199863E0,5.343199730E0,-3.789199829E0
1.088933067E1,3.572599888E0,5.843699932E0,-3.658399820E0
1.089933067E1,3.227999926E0,5.280999660E0,-3.510299921E0
1.090933067E1,2.537299871E0,4.833499908E0,-2.769399881E0
1.091933067E1,1.254899979E0,3.759099960E0,-1.425699949E0
1.092933067E1,-1.496799946E0,2.345599890E0,5.900000036E-2
1.093933067E1,-4.532999992E0,1.333999932E-1,1.007200003E0
1.094933067E1,-6.814899921E0,-1.824899912E0,1.636699915E0
1.095933067E1,-6.957699776E0,-2.894299984E0,1.760899901E0
1.096933067E1,-6.945299625E0,-3.306799889E0,2.123299837E0
1.097933067E1,-6.204400063E0,-2.849299908E0,2.472100019E0
1.098933067E1,-4.700399876E0,-2.703399897E0,3.203899860E0
1.099933067E1,-3.648499966E0,-2.416699886E0,3.754400015E0
1.100933067E1,-2.204599857E0,-1.379400015E0,3.100199938E0
1.101933067E1,-1.048699975E0,-2.177999914E-1,2.263299942E0
1.102933067E1,2.307000011E-1,3.048999906E-1,1.144500017E0
1.103933067E1,1.157299995E0,2.529999986E-2,-1.923999935E-1
1.104933067E1,2.559399843E0,2.379999869E-2,-1.793499947E0
1.105933067E1,4.345299721E0,-1.187500000E0,-1.592099905E0
1.106933067E1,6.680199623E0,-3.252199888E0,2.405999899E-1
1.107933067E1,8.052299500E0,-5.837800026E0,2.278399944E0
1.108933067E1,6.582999706E0,-7.785699844E0,3.119499922E0
1.109933067E1,1.621699929E0,-8.857600212E0,4.925199986E0
1.110933067E1,-5.027100086E0,-1.089120007E1,7.486599922E0
1.111933067E1,-7.277099609E0,-8.543299675E0,4.879799843E0
1.112933067E1,-8.186999559E-1,-1.663499951E0,-3.319999874E-1
1.113933067E1,6.119400024E0,3.602499962E0,-5.260299683E0
1.114933067E1,6.804899693E0,8.925000191E0,-8.848799706E0
1.115933067E1,7.339299679E0,9.256599426E0,-9.225199699E0
1.116933067E1,1.050319958E1,5.553699970E0,-9.542599678E0
1.117933067E1,9.336400032E0,1.800999939E-1,-8.801400185E0
1.118933067E1,6.903599739E0,-1.168799996E0,-4.294899940E0
1.119933067E1,5.012300014E0,-3.170000017E-1,-5.092999935E-1
1.120933067E1,3.533399820E0,2.743999958E-1,8.768000007E-1
1.121933067E1,2.411799908E0,3.210999966E-1,4.268999994E-1
1.122933067E1,1.420899987E0,-3.042999804E-1,-2.416999936E-1
1.123933067E1,3.759000003E-1,-5.009999871E-1,2.540000081E-1
1.124933067E1,-7.339000106E-1,-1.264899969E0,1.176999927E0
1.125933067E1,-3.132400036E0,-2.658999920E0,9.486999512E-1
1.126933067E1,-5.680199623E0,-4.639199734E0,-2.917000055E-1
1.127933067E1,-7.140100002E0,-6.600899696E0,-2.341300011E0
1.128933067E1,-7.828099728E0,-3.934000015E0,-5.948599815E0
1.129933067E1,-6.819599628E0,-1.162999943E-1,-6.983399868E0
1.130933067E1,-4.381499767E0,2.568399906E0,-6.364099979E0
1.131933067E1,-2.308799982E0,3.525399923E0,-5.715499878E0
1.132933067E1,-1.258799911E0,1.392199993E0,-4.791599751E0
1.133933067E1,-2.908900023E0,-1.700999975E0,-3.181299925E0
1.134933067E1,-3.505899906E0,-3.466099977E0,-2.774299860E0
1.135933067E1,-1.560699940E0,-2.417199850E0,-1.886599898E0
1.136933067E1,-8.312999606E-1,-1.302799940E0,-1.222599983E0
1.137933067E1,-7.116000056E-1,-7.610999942E-1,-6.237999797E-1
1.138933067E1,-6.229000092E-1,1.659999937E-1,-5.550999641E-1
1.139933067E1,-2.201000005E-1,7.026999593E-1,-6.721999645E-1
1.140933067E1,5.367000103E-1,4.452999830E-1,-4.575999975E-1
1.141933067E1,1.039299965E0,4.231999815E-1,9.609999508E-2
1.142933067E1,9.769999981E-1,1.245100021E0,2.223999947E-1
1.143933067E1,8.014000058E-1,2.004299879E0,2.418999970E-1
1.144933067E1,1.392099977E0,2.366699934E0,4.556999803E-1
1.145933067E1,2.838799953E0,1.843799949E0,9.080999494E-1
1.146933067E1,4.136799812E0,9.954999685E-1,1.560400009E0
1.147933067E1,4.881299973E0,4.384000003E-1,2.415400028E0
1.148933067E1,4.136799812E0,-3.271999955E-1,2.316999912E0
1.149933067E1,1.223599911E0,-3.400999904E-1,1.152899981E0
1.150933067E1,-1.343299985E0,-6.875999570E-1,1.019999944E-2
1.151933067E1,-1.979599953E0,-1.083999991E0,5.959999934E-2
1.152933067E1,-1.770499945E0,-1.370999932E0,7.613999844E-1
1.153933067E1,-5.835999846E-1,-8.035999537E-1,6.402999759E-1
1.154933067E1,4.260999858E-1,1.280999929E-1,2.459999919E-1
1.155933067E1,1.127999946E-1,4.314999878E-1,2.175000012E-1
1.156933067E1,-1.628799915E0,-3.658999801E-1,1.305099964E0
1.157933067E1,-4.020499706E0,-2.125599861E0,2.787199974E0
1.158933067E1,-5.108900070E0,-2.090800047E0,3.984799862E0
1.159933067E1,-5.582900047E0,-1.592999935E0,4.468400002E0
1.160933067E1,-3.661099911E0,-5.389999971E-2,3.559399843E0
1.161933067E1,-1.881799936E0,-2.886999846E-1,1.736899972E0
1.162933067E1,-1.979900002E0,-1.171499968E0,7.809000015E-1
1.163933067E1,-2.060499907E0,-1.054299951E0,9.721999764E-1
1.164933067E1,-1.825599909E0,-1.171399951E0,1.239899993E0
1.165933067E1,-1.034299970E0,-1.375100017E0,1.823899984E0
1.166933067E1,-5.182999969E-1,-1.979099989E0,2.333899975E0
1.167939317E1,-1.243999973E-1,-2.641899824E0,2.202600002E0
1.168933067E1,-8.624999523E-1,-3.255100012E0,1.792199969E0
1.169933067E1,-2.052999973E0,-4.153299809E0,7.494999766E-1
1.170933067E1,-2.544199944E0,-4.444099903E0,-2.265999913E-1
1.171933067E1,-2.265599966E0,-3.882999897E0,-6.309999526E-2
1.172933067E1,-8.951999545E-1,-2.901999950E0,9.742999673E-1
1.173933067E1,1.250699997E0,-3.337199926E0,1.538800001E0
1.174933067E1,2.626399994E0,-3.759099960E0,7.281999588E-1
1.175933067E1,3.368799925E0,-3.021499872E0,-1.080999970E0
1.176933067E1,3.102200031E0,-2.538199902E0,-2.817399979E0
1.177933067E1,2.482499838E0,-2.181299925E0,-3.348599911E0
1.178933067E1,2.121999979E0,-2.300899982E0,-4.094399929E0
1.179933067E1,9.079999924E-1,-3.051699877E0,-4.246599674E0
1.180933067E1,1.938000023E-1,-3.168900013E0,-4.216599941E0
1.181933067E1,-3.499999940E-1,-3.264400005E0,-3.448299885E0
1.182933067E1,-8.474999666E-1,-3.800499916E0,-2.469099998E0
1.183933067E1,-1.143100023E0,-4.532000065E0,-2.059000015E0
1.184933067E1,-1.371299982E0,-5.813799858E0,-2.250799894E0
1.185933067E1,-8.468999863E-1,-6.897500038E0,-2.658399820E0
1.186933067E1,6.172999740E-1,-7.035699844E0,-2.095999956E0
1.187933067E1,3.171799898E0,-6.315399647E0,-2.419499874E0
1.188933067E1,5.074999809E0,-5.650700092E0,-3.439100027E0
1.189933067E1,6.132799625E0,-5.098199844E0,-5.286099911E0
1.190933067E1,6.651599884E0,-4.170599937E0,-7.342599869E0
1.191933067E1,5.984099865E0,-3.093099833E0,-8.037099838E0
1.192933067E1,5.032700062E0,-1.737299919E0,-6.061899662E0
1.193933067E1,2.556799889E0,-1.350899935E0,-4.356699944E0
1.194933067E1,6.049999967E-2,-1.642099977E0,-2.969399929E0
1.195933067E1,-1.520900011E0,-1.678799987E0,-2.103499889E0
1.196933067E1,-2.059499979E0,-1.754299998E0,-1.555699944E0
1.197933067E1,-2.547899961E0,-2.007299900E0,-1.412500024E0
1.198933067E1,-2.484099865E0,-1.364599943E0,-1.380399942E0
1.199933067E1,2.540000081E-1,4.879999906E-2,-2.571599960E0
1.200933067E1,4.155999660E0,1.939199924E0,-3.529999971E0
1.201933067E1,7.156399727E0,3.951999903E0,-3.406199932E0
1.202933067E1,7.401499748E0,3.707000017E0,-2.323400021E0
1.203933067E1,5.820299625E0,2.278100014E0,-2.582399845E0
1.204933067E1,9.916599274E0,2.972699881E0,-1.076799989E0
1.205933067E1,7.693199635E0,2.796900034E0,-2.407999933E-1
1.206933067E1,2.448400021E0,-1.056699991E0,-4.384500027E0
1.207933067E1,1.997199893E0,-9.949999452E-1,-4.403599739E0
1.208933067E1,3.291699886E0,1.427599907E0,-5.040999651E-1
1.209933067E1,2.948599815E0,1.448899984E0,-3.523799896E0
1.210933067E1,2.523799896E0,-9.389999509E-2,-3.727199793E0
1.211933067E1,1.494899988E0,-4.110199928E0,-3.256599903E0
1.212933067E1,2.731299877E0,-3.034099817E0,-1.767199993E0
1.213933067E1,1.707199931E0,-3.499499798E0,-3.904099941E0
1.214933067E1,3.122299910E0,-1.319399953E0,-4.922999740E-1
1.215933067E1,1.288999915E0,-2.083799839E0,-5.814999938E-1
1.216933067E1,-3.262300014E0,-2.691999912E0,-4.350999892E-1
1.217933067E1,-6.617000103E-1,4.084999859E-1,2.642999887E0
1.218933067E1,2.295199871E0,2.387099981E0,1.872399926E0
1.219933067E1,2.243299961E0,3.279699802E0,2.694999874E-1
1.220933067E1,3.140999973E-1,2.855199814E0,-6.638999581E-1
1.221933067E1,-6.796999574E-1,1.641600013E0,-5.859000087E-1
1.222933067E1,-1.109699965E0,6.653999686E-1,1.132499933E0
1.223933067E1,-4.465000033E-1,9.102999568E-1,2.297899961E0
1.224933067E1,2.286999971E-1,1.477699995E0,2.188799858E0
1.225933067E1,1.051699996E0,1.826799989E0,6.818000078E-1
1.226933067E1,2.092499971E0,1.518899918E0,-9.964999557E-1
1.227933067E1,3.123699903E0,1.886399984E0,-2.479699850E0
1.228933067E1,3.536999941E0,2.146499872E0,-3.037699938E0
1.229933067E1,2.736099958E0,1.014500022E0,-2.516499996E0
1.230933067E1,1.513299942E0,2.990999818E-1,-2.332000017E0
1.231933067E1,3.480000049E-2,-1.406999975E-1,-1.901399970E0
1.232933067E1,-2.293999940E-1,-3.049999848E-2,-1.230999947E0
1.233933067E1,-3.319999948E-2,5.649999902E-2,-8.509999514E-1
1.234933067E1,1.199999973E-1,-3.181000054E-1,-3.531999886E-1
1.235933067E1,4.558999836E-1,-4.278999865E-1,-2.011999935E-1
1.236933067E1,4.086999893E-1,-2.263000011E-1,-1.405999959E-1
1.237933067E1,2.233999968E-1,-1.796000004E-1,-1.005999967E-1
1.238933067E1,2.701999843E-1,-5.049999803E-2,-4.535999894E-1
1.239933067E1,2.342000008E-1,-5.089999735E-2,-7.738999724E-1
1.240933067E1,3.630000055E-1,-3.109999932E-2,-9.186999798E-1
1.241933067E1,4.060999751E-1,-3.050000072E-1,-1.050099969E0
1.242933067E1,3.973999918E-1,-8.544999957E-1,-1.225199938E0
1.243933067E1,3.755999804E-1,-1.258799911E0,-1.337499976E0
1.244933067E1,2.305999994E-1,-1.615799904E0,-1.565799952E0
1.245933067E1,3.319999948E-2,-1.726999998E0,-1.630100012E0
1.246933067E1,-5.939999968E-2,-1.610899925E0,-1.882099986E0
1.247933224E1,-1.981000006E-1,-1.529599905E0,-1.605700016E0
1.248933067E1,-2.169999927E-1,-1.314899921E0,-1.152699947E0
1.249933067E1,-9.629999846E-2,-7.458999753E-1,-7.447999716E-1
1.250933067E1,-7.050000131E-2,-1.678999960E-1,-6.093999743E-1
1.251933067E1,1.169999987E-1,1.931999922E-1,-4.309999943E-1
1.252933067E1,2.642000020E-1,4.316999912E-1,-4.957000017E-1
1.253933067E1,3.145999908E-1,7.444999814E-1,-2.899999917E-1
1.254933067E1,3.949999809E-1,9.141999483E-1,-1.797000021E-1
1.255933067E1,3.647999763E-1,1.021700025E0,1.799999969E-3
1.256933067E1,4.088999927E-1,8.180999756E-1,-9.479999542E-2
1.257933067E1,2.545999885E-1,3.109000027E-1,-3.598999977E-1
1.258933067E1,3.136000037E-1,-1.339999959E-2,-5.730999708E-1
1.259933067E1,3.987999856E-1,-1.819999963E-1,-7.904999852E-1
1.260933067E1,3.488000035E-1,-2.705000043E-1,-8.461999893E-1
1.261933067E1,3.592000008E-1,-3.953999877E-1,-7.881000042E-1
1.262933067E1,5.152999759E-1,-3.650999963E-1,-7.601000071E-1
1.263933067E1,4.421999753E-1,-3.195999861E-1,-6.304000020E-1
1.264933067E1,2.922999859E-1,-2.680000067E-1,-3.832999766E-1
1.265933067E1,1.842999905E-1,-2.210000008E-1,-3.132999837E-1
1.266933067E1,-6.629999727E-2,-1.879999936E-1,-2.018999904E-1
1.267933067E1,-3.215999901E-1,-2.219999880E-1,-1.620000005E-1
1.268933067E1,-2.540000081E-1,-1.138999984E-1,-1.353999972E-1
1.269933067E1,-1.052000001E-1,-1.809999943E-1,-9.420000017E-2
1.270933067E1,-9.209999442E-2,-1.879999936E-1,-2.939999998E-1
1.271933067E1,-2.840000018E-2,-4.562999904E-1,-4.179999828E-1
1.272933067E1,-1.793999970E-1,-8.455999494E-1,-5.648999810E-1
1.273933067E1,1.456999928E-1,-6.635999680E-1,-7.402999997E-1
1.274933067E1,3.827999830E-1,-5.009999871E-1,-8.459999561E-1
1.275933067E1,7.418999672E-1,-2.310999930E-1,-9.092999697E-1
1.276933067E1,1.112499952E0,2.084999979E-1,-9.082999825E-1
1.277933067E1,1.419499993E0,7.250999808E-1,-8.068999648E-1
1.278933067E1,1.348099947E0,1.028599977E0,-7.119999528E-1
1.279933067E1,1.296499968E0,8.797999620E-1,-6.669999957E-1
1.280933067E1,9.412999749E-1,7.682999969E-1,-7.448999882E-1
1.281933067E1,6.103999615E-1,5.454999804E-1,-6.186000109E-1
1.282933067E1,1.465999931E-1,6.963999867E-1,-4.508000016E-1
1.283933067E1,8.779999614E-2,8.109999895E-1,-2.132999897E-1
1.284933067E1,1.331000030E-1,7.566999793E-1,-1.363999993E-1
1.285933067E1,-7.809999585E-2,7.290999889E-1,-3.649999797E-1
1.286933067E1,-4.309999943E-2,1.025499940E0,-4.957999885E-1
1.287933067E1,5.130999684E-1,1.731799960E0,-4.280999899E-1
1.288933067E1,8.489999771E-1,2.162899971E0,-1.449999958E-1
1.289933067E1,1.439199924E0,2.160199881E0,-5.040000007E-2
1.290933067E1,1.743499994E0,1.864499927E0,-1.674000025E-1
1.291933067E1,1.586599946E0,1.647199988E0,-5.428000093E-1
1.292933067E1,1.292899966E0,1.657299995E0,-8.283999562E-1
1.293933067E1,9.906999469E-1,1.519999981E0,-9.953999519E-1
1.294933067E1,8.466999531E-1,1.251399994E0,-1.149199963E0
1.295933067E1,1.599599957E0,1.342199922E0,-1.762599945E0
1.296933067E1,1.581900001E0,1.117599964E0,-1.516899943E0
1.297933067E1,3.043999970E-1,-1.764999926E-1,-7.642999887E-1
1.298933067E1,-1.061999917E0,-1.417500019E0,4.675999880E-1
1.299933067E1,-1.360700011E0,-2.119999886E0,1.008599997E0
1.300933067E1,-1.152499914E0,-1.946199894E0,9.079999924E-1
1.301933067E1,-7.261999846E-1,-1.202700019E0,1.533000022E-1
1.302933067E1,-4.660999775E-1,-5.209999681E-1,-2.184000015E-1
1.303933067E1,6.499999762E-2,5.900999904E-1,-2.872999907E-1
1.304933067E1,5.044999719E-1,1.046299934E0,-6.769999862E-1
1.305933067E1,1.376799941E0,7.360999584E-1,-4.275999963E-1
1.306933067E1,1.579899907E0,7.851999998E-1,2.976999879E-1
1.307933067E1,1.663599968E0,1.266499996E0,3.513999879E-1
1.308933067E1,1.383700013E0,1.527599931E0,3.366999924E-1
1.309933067E1,2.958000004E-1,9.448999763E-1,6.044999957E-1
1.310933067E1,-9.206999540E-1,-4.752999842E-1,-6.509999931E-2
1.311933067E1,-9.399999976E-1,-7.542999983E-1,-1.022199988E0
1.312933067E1,-5.044999719E-1,7.246999741E-1,-1.683899999E0
1.313933067E1,-6.058999896E-1,1.732800007E0,-2.380599976E0
1.314933067E1,6.849999726E-2,1.376399994E0,-1.060099959E0
1.315933067E1,1.259400010E0,2.410000004E-2,1.849000007E-1
1.316933067E1,2.307699919E0,-3.497999907E-1,-5.590000153E-1
1.317933067E1,2.092399836E0,-1.250299931E0,-1.847499967E0
1.318933067E1,1.384799957E0,-2.458999872E0,-1.193599939E0
1.319933067E1,-2.929999866E-2,-3.973999977E0,-9.659999609E-1
1.320933067E1,-5.561000109E-1,-3.779699802E0,-1.050999984E-1
1.321933067E1,-1.234799981E0,-3.081599951E0,2.099999934E-1
1.322933067E1,-1.598599911E0,-2.080499887E0,4.402000010E-1
1.323933067E1,-1.376599908E0,-1.608999968E0,3.667999804E-1
1.324933067E1,-1.803299904E0,-1.777199984E0,2.489999868E-2
1.325933067E1,-1.829699993E0,-2.048699856E0,-9.789999723E-1
1.326933067E1,-1.671899915E0,-2.085799932E0,-1.532799959E0
1.327933067E1,-1.445400000E0,-1.996799946E0,-1.953099966E0
1.328933067E1,-9.826999903E-1,-1.554899931E0,-1.684599996E0
1.329933067E1,-6.297999620E-1,-1.046999931E0,-1.492499948E0
1.330933067E1,-3.792999983E-1,-3.937000036E-1,-1.220499992E0
1.331933067E1,-1.415999979E-1,-5.329999700E-2,-5.909000039E-1
1.332933067E1,5.389999971E-2,-1.289999951E-2,-5.810999870E-1
1.333933067E1,3.244999945E-1,3.910999894E-1,-2.744999826E-1
1.334933067E1,4.569000006E-1,4.906999767E-1,-3.459999859E-1
1.335933067E1,7.312999964E-1,7.968999743E-1,-4.845999777E-1
1.336933067E1,1.675300002E0,1.665699959E0,-2.877999842E-1
1.337933067E1,1.987199903E0,2.181099892E0,-5.548999906E-1
1.338933067E1,2.428099871E0,3.265699863E0,-1.004999995E0
1.339933067E1,2.606299877E0,3.554199934E0,-4.369999766E-1
1.340933067E1,2.189899921E0,3.135799885E0,1.399999950E-3
1.341933067E1,1.410799980E0,2.398699999E0,3.195999861E-1
1.342933067E1,7.206000090E-1,1.787299991E0,2.888999879E-1
1.343933067E1,1.612000018E-1,1.330199957E0,4.386999905E-1
1.344933067E1,-9.063999653E-1,6.098999977E-1,7.215999961E-1
1.345933067E1,-1.859499931E0,1.261999905E-1,4.510999918E-1
1.346933067E1,-2.448600054E0,-2.139999904E-2,-4.023999870E-1
1.347933067E1,-2.349999905E0,9.699999355E-3,-7.567999959E-1
1.348933067E1,-2.402499914E0,-2.180000022E-2,-8.853999972E-1
1.349933067E1,-2.255899906E0,-1.699999906E-2,-1.211499929E0
1.350933067E1,-2.305899858E0,-1.130999997E-1,-7.369999886E-1
1.351933067E1,-2.614799976E0,-1.591799974E0,-1.518999934E-1
1.352933067E1,-2.419600010E0,-3.513000011E0,-1.150000002E-2
1.353933067E1,-1.954399943E0,-4.972499847E0,-8.364999890E-1
1.354933067E1,-2.189999968E-1,-5.068299770E0,-9.243999720E-1
1.355933067E1,1.545799971E0,-4.478199959E0,-3.300999999E-1
1.356933067E1,2.623199940E0,-3.016099930E0,-8.269999623E-1
1.357933067E1,3.102099895E0,-1.752200007E0,-7.559999824E-2
1.358933067E1,1.618399978E0,-1.520900011E0,2.092599869E0
1.359933067E1,-7.626999617E-1,-1.348799944E0,2.353999853E0
1.360933067E1,-2.377300024E0,-1.144999981E0,8.281999826E-1
1.361933067E1,-2.705799818E0,-9.886999726E-1,6.749999523E-2
1.362933067E1,-2.974200010E0,-8.333999515E-1,-1.207999960E-1
1.363933067E1,-3.107299805E0,-8.623999953E-1,1.372999996E-1
1.364933067E1,-3.044399977E0,-1.353099942E0,5.550000072E-1
1.365933067E1,-2.946499825E0,-1.627299905E0,9.991999865E-1
1.366933067E1,-2.813999891E0,-1.870700002E0,9.764999747E-1
1.367933067E1,-3.129299879E0,-2.358099937E0,6.037999988E-1
1.368933067E1,-3.479499817E0,-3.020999908E0,7.570999861E-1
1.369933067E1,-3.792299986E0,-3.574899912E0,1.154299974E0
1.370933067E1,-3.830499887E0,-4.156300068E0,1.615999937E0
1.371933067E1,-4.359399796E0,-4.656599998E0,2.168299913E0
1.372933067E1,-4.866499901E0,-4.732100010E0,2.652099848E0
1.373933067E1,-4.966000080E0,-4.930699825E0,2.620899916E0
1.374933067E1,-4.860799789E0,-5.281099796E0,3.503499985E0
1.375933067E1,-4.346099854E0,-5.336100101E0,4.557399750E0
1.376933067E1,-3.569599867E0,-4.806600094E0,5.148200035E0
1.377933067E1,-3.061800003E0,-3.812799931E0,5.461699963E0
1.378933067E1,-2.990599871E0,-2.502499819E0,5.225599766E0
1.379933067E1,-3.187899828E0,-1.073499918E0,4.428199768E0
1.380933067E1,-3.387899876E0,-1.563999951E-1,3.663699865E0
1.381933067E1,-3.627699852E0,6.939999759E-2,3.056399822E0
1.382933067E1,-3.718799829E0,-8.394999504E-1,9.045999646E-1
1.383933067E1,-2.753799915E0,-1.835999966E0,-2.219399929E0
1.384933067E1,-1.560400009E0,-2.263200045E0,-4.300799847E0
1.385933067E1,-5.216999650E-1,-2.286499977E0,-5.779299736E0
1.386933067E1,2.926999927E-1,-1.465499997E0,-6.256700039E0
1.387933067E1,7.321999669E-1,-5.175999999E-1,-6.091099739E0
1.388933067E1,1.284399986E0,1.974999905E-1,-5.887399673E0
1.389933067E1,1.413399935E0,-1.112999991E-1,-6.203799725E0
1.390933067E1,1.194499969E0,-1.853399992E0,-6.835199833E0
1.391933067E1,8.817999959E-1,-4.001999855E0,-5.285399914E0
1.392933067E1,4.208000004E-1,-7.108899593E0,-9.999999311E-4
1.393933067E1,-1.993699908E0,-7.979099751E0,5.580299854E0
1.394933067E1,-3.447399855E0,-6.048399925E0,4.806699753E0
1.395933067E1,-2.959800005E0,-4.164299965E0,-1.928999901E0
1.396933067E1,-1.577399969E0,-2.595899820E0,-7.448599815E0
1.397933067E1,-1.067099929E0,-1.455899954E0,-9.039099693E0
1.398933067E1,-3.481999934E-1,-2.645999789E-1,-6.826699734E0
1.399933067E1,1.419499993E0,1.478899956E0,-4.613299847E0
1.400933067E1,2.305799961E0,2.563299894E0,-3.863699913E0
1.401933067E1,2.169600010E0,2.039599895E0,-4.381499767E0
1.402933067E1,3.169299841E0,2.464200020E0,-4.381899834E0
1.403933067E1,3.252300024E0,2.858999968E0,-3.822299957E0
1.404933067E1,2.474499941E0,3.130499840E0,-3.443399906E0
1.405933067E1,3.013700008E0,4.058599949E0,-3.331599951E0
1.406933067E1,4.196199894E0,4.768399715E0,-3.401000023E0
1.407933067E1,5.077499866E0,4.576200008E0,-4.536799908E0
1.408933067E1,6.197999954E0,4.398200035E0,-5.225299835E0
1.409933067E1,6.845999718E0,4.512899876E0,-5.737199783E0
1.410933067E1,6.663799763E0,4.676499844E0,-5.997099876E0
1.411933067E1,6.181599617E0,4.856100082E0,-5.556299686E0
1.412933067E1,5.810599804E0,4.918299675E0,-4.522500038E0
1.413933067E1,5.097199917E0,4.704099655E0,-3.572000027E0
1.414933067E1,4.603799820E0,4.474699974E0,-2.799700022E0
1.415933067E1,3.702600002E0,4.111599922E0,-2.118999958E0
1.416933067E1,2.892899990E0,3.664299965E0,-1.147400022E0
1.417933067E1,1.663699985E0,2.877899885E0,1.943999976E-1
1.418933067E1,-1.877699971E0,1.045799971E0,2.062099934E0
1.419933067E1,-5.660399914E0,-9.635999799E-1,3.140100002E0
1.420933067E1,-8.941800117E0,-2.977999926E0,2.909600019E0
1.421933067E1,-1.039019966E1,-4.319099903E0,1.819700003E0
1.422933067E1,-1.016819954E1,-5.071099758E0,2.269199848E0
1.423933067E1,-9.154999733E0,-6.184999943E0,3.341499805E0
1.424933067E1,-6.853600025E0,-7.004099846E0,4.727600098E0
1.425933067E1,-5.344699860E0,-6.061899662E0,5.404599667E0
1.426933067E1,-3.170499802E0,-3.977699995E0,4.930500031E0
1.427933067E1,-1.129599929E0,-1.488999963E0,2.928599834E0
1.428933067E1,6.632999778E-1,9.243999720E-1,6.509999931E-2
1.429933067E1,2.428799868E0,1.102900028E0,-2.346699953E0
1.430933067E1,3.529599905E0,7.140000165E-2,-3.546599865E0
1.431933067E1,3.557799816E0,-1.216899991E0,-3.112599850E0
1.432933067E1,3.064999819E0,-2.374500036E0,-2.389899969E0
1.433933067E1,2.699899912E0,-3.084300041E0,-1.759099960E0
1.434933067E1,2.469399929E0,-4.395800114E0,3.359999880E-2
1.435933067E1,8.689999580E-2,-6.630199909E0,3.611500025E0
1.436933067E1,-2.764899969E0,-9.128999710E0,7.991699696E0
1.437933067E1,-2.930699825E0,-9.208999634E0,5.899699688E0
1.438933067E1,1.452499986E0,-4.534899712E0,-2.255999893E-1
1.439933067E1,6.661200047E0,1.115399957E0,-5.547199726E0
1.440933067E1,1.058010006E1,5.656899929E0,-1.022159958E1
1.441933067E1,1.220289993E1,6.923099995E0,-8.269499779E0
1.442933067E1,1.293129921E1,6.222699642E0,-5.284199715E0
1.443933067E1,1.139260006E1,5.297699928E0,-3.929299831E0
1.444933067E1,9.341199875E0,4.865900040E0,-3.687799931E0
1.445933067E1,7.493899822E0,4.460099697E0,-4.202499866E0
1.446933067E1,5.637399673E0,2.758699894E0,-5.165699959E0
1.447933067E1,3.688899994E0,-5.878999829E-1,-6.007899761E0
1.448933067E1,1.611699939E0,-3.482499838E0,-6.704599857E0
1.449933067E1,-6.389999986E-1,-6.102699757E0,-6.417299747E0
1.450933067E1,-2.794699907E0,-8.468599319E0,-6.623899937E0
1.451933067E1,-5.140599728E0,-8.383600235E0,-6.587800026E0
1.452933067E1,-5.510999680E0,-5.864399910E0,-6.266099930E0
1.453933067E1,-3.239899874E0,-1.396600008E0,-4.462199688E0
1.454933067E1,-2.230399847E0,1.229099989E0,-1.437500000E0
1.455933067E1,-1.708099961E0,2.569499969E0,1.386600018E0
1.456933067E1,-1.288900018E0,2.962299824E0,3.195999861E0
1.457933067E1,-7.306999564E-1,3.367100000E0,3.282299995E0
1.458933067E1,3.972999752E-1,3.609099865E0,7.843999863E-1
1.459933067E1,1.516799927E0,3.130999804E0,-2.261800051E0
1.460933067E1,2.329900026E0,2.700799942E0,-3.961499929E0
1.461933067E1,8.158999681E-1,1.298599958E0,-2.392799854E0
1.462933067E1,-8.877999783E-1,4.925999939E-1,3.822999895E-1
1.463933067E1,-9.787999988E-1,3.510999978E-1,1.503299952E0
1.464933067E1,-6.714999676E-1,6.001999974E-1,3.633999825E-1
1.465933067E1,-6.712999940E-1,1.413999945E-1,-1.889999956E-2
1.466933067E1,-9.916999936E-1,5.219999701E-2,-2.486999929E-1
1.467933067E1,-4.501999915E-1,5.022999644E-1,6.223999858E-1
1.468933067E1,4.443999827E-1,5.469999909E-1,3.016899824E0
1.469933067E1,1.548599958E0,5.612999797E-1,3.604399920E0
1.470933067E1,2.585099936E0,9.965999722E-1,2.254600048E0
1.471933067E1,2.450299978E0,1.023199916E0,6.699999794E-3
1.472933067E1,1.612800002E0,4.481999874E-1,-2.344899893E0
1.473933067E1,9.523999691E-1,-3.667999804E-1,-2.153599977E0
1.474933067E1,-1.448699951E0,-2.059799910E0,5.995999575E-1
1.475933067E1,-3.142799854E0,-2.862499952E0,3.996799946E0
1.476933067E1,-4.186699867E0,-3.066999912E0,5.654299736E0
1.477933067E1,-3.839200020E0,-2.463399887E0,5.018399715E0
1.478933067E1,-3.256999969E0,-1.489199996E0,3.159799814E0
1.479933067E1,-4.120599747E0,-1.008100033E0,1.290300012E0
1.480933067E1,-5.488999844E0,-1.219900012E0,-5.386999846E-1
1.481933067E1,-6.627999783E0,-2.137500048E0,-1.997899890E0
1.482933067E1,-7.017499924E0,-2.909699917E0,-2.193099976E0
1.483933067E1,-6.335999966E0,-2.926100016E0,-1.375100017E0
1.484933067E1,-5.733299732E0,-2.904399872E0,-4.445999861E-1
1.485933067E1,-6.329199791E0,-3.224999905E0,-4.046999812E-1
1.486933067E1,-7.964799881E0,-4.112100124E0,-4.957999885E-1
1.487933067E1,-9.198299408E0,-5.201499939E0,7.269999981E-1
1.488933067E1,-8.939599991E0,-6.128399849E0,3.048399925E0
1.489933067E1,-8.276100159E0,-7.733899593E0,5.739299774E0
1.490933067E1,-7.472099781E0,-9.083199501E0,6.415199757E0
1.491933067E1,-5.468199730E0,-8.411199570E0,6.608799934E0
1.492933067E1,-3.272300005E0,-6.849799633E0,8.460599899E0
1.493933067E1,-2.003700018E0,-5.058199883E0,1.064489937E1
1.494933067E1,-1.074999928E0,-3.063499928E0,9.999499321E0
1.495933067E1,3.082999885E-1,-1.777300000E0,6.011399746E0
1.496933067E1,4.643999934E-1,-1.436200023E0,-1.671599984E0
1.497933380E1,2.919999957E-1,-2.695299864E0,-7.901000023E0
1.498933067E1,-8.029999584E-2,-4.055399895E0,-9.801199913E0
1.499933067E1,1.833999902E-1,-4.222199917E0,-8.693300247E0
1.500933067E1,2.126800060E0,-4.753599644E0,-7.158299923E0
1.501933067E1,4.513599873E0,-5.676699638E0,-5.875899792E0
1.502933067E1,5.778699875E0,-7.268599987E0,-2.837699890E0
1.503933067E1,5.420499802E0,-7.109099865E0,1.289399981E0
1.504933067E1,3.069799900E0,-5.274799824E0,3.945099831E0
1.505933067E1,7.989000082E-1,-3.803699970E0,4.519799709E0
1.506933067E1,1.188300014E0,-3.054499865E0,1.833999991E0
1.507933067E1,2.822999954E0,-2.747499943E0,-1.537899971E0
1.508933067E1,5.206099987E0,-1.923799992E0,-4.529200077E0
1.509933067E1,5.892399788E0,-1.856699944E0,-1.083930016E1
1.510933067E1,2.289499998E0,-1.983899951E0,-2.075939941E1
1.511933067E1,-2.152999938E-1,-1.552699924E0,-1.971909904E1
1.512933067E1,-1.894199967E0,1.253999919E-1,-4.976900101E0
1.513933067E1,-4.007699966E0,1.510299921E0,7.674899578E0
1.514933067E1,-2.359400034E0,2.615999937E0,3.077800035E0
1.515933067E1,1.398599982E0,3.855000019E0,-3.349699974E0
1.516933067E1,3.745299816E0,4.694799900E0,-4.289099693E0
1.517933067E1,5.389499664E0,5.333199978E0,-5.087999821E0
1.518933067E1,6.052000046E0,5.915499687E0,-6.148399830E0
1.519933067E1,6.458299637E0,6.832599640E0,-7.153899670E0
1.520933067E1,7.307699680E0,7.235699654E0,-7.146899700E0
1.521933067E1,7.606099606E0,7.265899658E0,-7.297799587E0
1.522933067E1,7.598999977E0,7.314699650E0,-7.322499752E0
1.523933067E1,7.156599998E0,7.548499584E0,-7.350899696E0
1.524933067E1,6.903499603E0,7.771399975E0,-7.241499901E0
1.525933067E1,6.380899906E0,7.906199932E0,-7.264400005E0
1.526933067E1,5.538099766E0,7.798199654E0,-6.237599850E0
1.527933067E1,4.486899853E0,7.133699894E0,-4.647999763E0
1.528933067E1,3.126999855E0,5.665699959E0,-2.283999920E0
1.529933067E1,5.522999763E-1,2.978699923E0,1.266899943E0
1.530933067E1,-3.461699963E0,-9.770999551E-1,6.666100025E0
1.531933067E1,-9.632100105E0,-6.471299648E0,9.974699974E0
1.532933067E1,-1.430189991E1,-1.167449951E1,7.524799824E0
1.533933067E1,-1.379949951E1,-1.468899918E1,6.539299965E0
1.534933067E1,-1.000549984E1,-1.379509926E1,6.974099636E0
1.535933067E1,-5.448499680E0,-9.999400139E0,5.428099632E0
1.536933067E1,-1.759199977E0,-4.645999908E0,4.348099709E0
1.537933067E1,8.170999885E-1,-5.361999869E-1,2.776799917E0
1.538933067E1,2.569499969E0,1.660099983E0,9.264999628E-1
1.539933067E1,5.407499790E0,2.629099846E0,-6.918999553E-1
1.540933067E1,6.968299866E0,1.468599916E0,-9.282999635E-1
1.541933067E1,6.948999882E0,-1.231899977E0,-1.013199925E0
1.542933067E1,5.732100010E0,-4.139899731E0,-2.554000020E-1
1.543933067E1,3.450099945E0,-7.138399601E0,2.334199905E0
1.544933067E1,-2.116999924E-1,-1.032929993E1,4.375400066E0
1.545933067E1,-2.791399956E0,-1.000449944E1,3.069999933E0
1.546933067E1,-1.054999948E0,-5.816099644E0,1.357000023E-1
1.547933067E1,2.442999840E0,-5.904999971E-1,-5.200200081E0
1.548933067E1,7.537499905E0,4.498199940E0,-1.072659969E1
1.549933067E1,1.123199940E1,7.219999790E0,-9.350699425E0
1.550933067E1,1.144899940E1,7.102499962E0,-5.636399746E0
1.551933067E1,1.000029945E1,6.067100048E0,-5.751800060E0
1.552933067E1,8.542599678E0,4.960899830E0,-6.706999779E0
1.553933067E1,7.374300003E0,3.715600014E0,-6.275599957E0
1.554933067E1,5.477799892E0,1.599099994E0,-5.260600090E0
1.555933067E1,3.422199965E0,-7.572000027E-1,-4.375999928E0
1.556933067E1,1.418599963E0,-3.370999813E0,-4.184199810E0
1.557933067E1,-4.897999763E-1,-5.349099636E0,-4.138499737E0
1.558933067E1,-1.910499930E0,-6.151999950E0,-4.362199783E0
1.559933067E1,-2.381700039E0,-5.570099831E0,-5.183099747E0
1.560933067E1,-1.732800007E0,-3.284099817E0,-5.470399857E0
1.561933067E1,-1.362100005E0,-1.299399972E0,-3.864799976E0
1.562933067E1,-1.648800015E0,4.118999839E-1,-2.632099867E0
1.563933067E1,-2.339400053E0,1.573199987E0,-1.763799906E0
1.564933067E1,-1.972099900E0,2.408399820E0,-3.414999843E-1
1.565933067E1,-1.968599916E0,2.357499838E0,2.859999835E-1
1.566933067E1,-2.464699984E0,2.470599890E0,2.651999891E-1
1.567933067E1,-2.205699921E0,2.087499857E0,2.867999971E-1
1.568933067E1,-9.355999827E-1,1.379099965E0,-5.297999978E-1
1.569933067E1,-1.063999981E-1,1.099900007E0,-3.311299801E0
1.570933067E1,5.446000099E-1,9.269999862E-1,-5.423999786E0
1.571933067E1,5.306000113E-1,1.263099909E0,-6.027400017E0
1.572933067E1,5.403000116E-1,1.774500012E0,-5.462899685E0
1.573933067E1,9.153999686E-1,2.273599863E0,-4.058399677E0
1.574933067E1,2.479599953E0,2.749399900E0,-2.789899826E0
1.575933067E1,4.066400051E0,1.767599940E0,-8.816999793E-1
1.576933067E1,5.100500107E0,6.202999949E-1,3.345000029E0
1.577933067E1,5.000799656E0,-6.099999882E-3,9.733200073E0
1.578933067E1,2.863799810E0,-4.808999896E-1,1.054430008E1
1.579933067E1,-4.499999806E-3,-1.716799974E0,5.110099792E0
1.580933067E1,-1.217499971E0,-2.398699999E0,2.802700043E0
1.581933067E1,-1.194800019E0,-2.001399994E0,6.284999847E-1
1.582933067E1,-1.195799947E0,-1.636500001E0,-1.169199944E0
1.583933067E1,-9.065999985E-1,-1.648899913E0,-2.600000007E-3
1.584933067E1,-2.122599840E0,-2.529500008E0,4.520499706E0
1.585933067E1,-4.061699867E0,-2.694000006E0,6.244400024E0
1.586933067E1,-5.235300064E0,-1.782699943E0,2.983299971E0
1.587933067E1,-7.062899590E0,-9.529999495E-1,-7.842999697E-1
1.588933067E1,-9.376500130E0,-4.837999940E-1,-2.501899958E0
1.589933067E1,-1.144709969E1,-8.483999968E-1,-2.705899954E0
1.590933067E1,-1.186139965E1,-2.106499910E0,-2.142600060E0
1.591933067E1,-9.160699844E0,-3.232199907E0,-6.459000111E-1
1.592933067E1,-6.120299816E0,-3.825799942E0,2.081300020E0
1.593933067E1,-5.857899666E0,-4.259699821E0,3.593699932E0
1.594933067E1,-8.320599556E0,-5.100100040E0,2.978299856E0
1.595933067E1,-9.726599693E0,-5.422499657E0,2.649799824E0
1.596933067E1,-9.168099403E0,-5.735499859E0,5.291599751E0
1.597933067E1,-7.008499622E0,-7.113800049E0,8.155599594E0
1.598933067E1,-4.502999783E0,-8.410099983E0,8.261599541E0
1.599933067E1,-1.474499941E0,-8.453499794E0,5.352299690E0
1.600933067E1,8.370999694E-1,-7.741399765E0,3.374399900E0
1.601933067E1,1.835699916E0,-5.906499863E0,2.053699970E0
1.602933067E1,1.995799899E0,-3.153100014E0,-2.427999973E-1
1.603933067E1,1.384599924E0,-1.472100019E0,-3.763199806E0
1.604933067E1,4.833000004E-1,-2.091699839E0,-5.571199894E0
1.605933067E1,-5.909999833E-2,-3.642799854E0,-5.548799992E0
1.606933067E1,2.950000018E-2,-4.869800091E0,-4.094999790E0
1.607933067E1,7.044000030E-1,-5.458999634E0,-2.541699886E0
1.608933067E1,2.211499929E0,-5.450299740E0,-2.250599861E0
1.609933067E1,3.411799908E0,-4.989799976E0,-2.421499968E0
1.610933067E1,3.662299871E0,-4.594099998E0,-2.609099865E0
1.611933067E1,4.548299789E0,-4.386699677E0,-1.388000011E0
1.612933067E1,4.647399902E0,-4.708399773E0,-6.475999951E-1
1.613933067E1,2.903899908E0,-6.314199924E0,-9.127999544E-1
1.614933067E1,1.083599925E0,-7.358299732E0,-2.889299870E0
1.615933067E1,1.901899934E0,-5.646499634E0,-5.126499653E0
1.616933067E1,3.698299885E0,-3.248899937E0,-5.323999882E0
1.617933067E1,4.020100117E0,-1.833400011E0,-6.174299717E0
1.618933067E1,4.358599663E0,-7.606999874E-1,-1.221899986E1
1.619933067E1,2.294600010E0,2.301999927E-1,-1.622270012E1
1.620933067E1,-2.575999796E-1,1.160300016E0,-7.585000038E0
1.621933067E1,-1.791299939E0,2.748299837E0,3.213500023E0
1.622933067E1,2.237999886E-1,4.517899990E0,1.591799974E0
1.623933067E1,2.203199863E0,5.735199928E0,-4.471399784E0
1.624933067E1,3.101899862E0,6.389999866E0,-6.155399799E0
1.625933067E1,4.550499916E0,7.334300041E0,-6.373899937E0
1.626933067E1,5.396199703E0,7.916999817E0,-6.029699802E0
1.627933067E1,6.039099693E0,8.085000038E0,-6.464399815E0
1.628933067E1,6.887099743E0,8.079199791E0,-6.847799778E0
1.629933067E1,7.468299866E0,8.061200142E0,-6.499199867E0
1.630933067E1,7.596999645E0,7.981899738E0,-6.360599995E0
1.631933067E1,7.307899952E0,7.771599770E0,-6.176099777E0
1.632933067E1,7.399899960E0,7.714999676E0,-6.148499966E0
1.633933067E1,7.012499809E0,7.647799969E0,-5.927099705E0
1.634933067E1,6.354399681E0,7.249399662E0,-4.777400017E0
1.635933067E1,5.384500027E0,5.823899746E0,-2.483099937E0
1.636933067E1,2.564699888E0,3.152299881E0,3.553999960E-1
1.637933067E1,-1.825399995E0,-6.266999841E-1,4.912499905E0
1.638933067E1,-7.821399689E0,-5.703700066E0,8.738999367E0
1.639933067E1,-1.212500000E1,-1.012379932E1,7.216599941E0
1.640933067E1,-1.169049931E1,-1.178609943E1,4.552999973E0
1.641933067E1,-8.543299675E0,-1.049559975E1,4.504099846E0
1.642933067E1,-5.460899830E0,-8.265699387E0,4.183000088E0
1.643933067E1,-3.013299942E0,-5.022099972E0,3.293200016E0
1.644933067E1,-1.041800022E0,-1.999699950E0,2.969799995E0
1.645933067E1,1.041399956E0,5.884000063E-1,1.316699982E0
1.646933067E1,2.994599819E0,2.219099998E0,-1.765999943E-1
1.647933067E1,5.141499996E0,1.626899958E0,-7.550999522E-1
1.648933067E1,5.995399952E0,-1.142199993E0,-4.089999795E-1
1.649933067E1,7.362799644E0,-5.101500034E0,7.488999963E-1
1.650933067E1,5.602999687E0,-9.074899673E0,5.749099731E0
1.651933067E1,1.429899931E0,-1.187849998E1,8.680899620E0
1.652933067E1,-3.169699907E0,-1.246999931E1,3.780200005E0
1.653933067E1,-1.717999935E0,-7.782499790E0,-1.911700010E0
1.654933067E1,1.713899970E0,-1.752299905E0,-3.896199942E0
1.655933067E1,5.967299938E0,3.829799891E0,-9.174300194E0
1.656933067E1,1.026859951E1,7.497200012E0,-1.174889946E1
1.657933067E1,1.149699974E1,8.173699379E0,-9.344099998E0
1.658933067E1,1.010939980E1,7.477299690E0,-8.020999908E0
1.659933067E1,8.769599915E0,6.275300026E0,-8.039699554E0
1.660933067E1,7.799399853E0,4.652899742E0,-7.396599770E0
1.661933067E1,6.379399776E0,2.038499832E0,-6.331999779E0
1.662933067E1,4.434799671E0,-5.475999713E-1,-5.350699902E0
1.663933067E1,2.476099968E0,-3.605799913E0,-4.505000114E0
1.664933067E1,2.008999884E-1,-6.307299614E0,-4.122600079E0
1.665933067E1,-1.469299912E0,-7.493700027E0,-3.934700012E0
1.666933067E1,-2.451499939E0,-6.592999935E0,-3.714699984E0
1.667933067E1,-1.898599982E0,-4.139299870E0,-3.530900002E0
1.668933067E1,-1.031099916E0,-1.059700012E0,-3.241099834E0
1.669933067E1,-1.282099962E0,1.039499998E0,-3.466499805E0
1.670933067E1,-2.089999914E0,1.893599987E0,-3.500000000E0
1.671933067E1,-1.095000029E0,2.383599997E0,-2.965199947E0
1.672933067E1,-8.669999838E-1,2.165600061E0,-2.117499828E0
1.673933067E1,-8.492999673E-1,1.886399984E0,-1.106299996E0
1.674933067E1,-9.330999851E-1,1.624599934E0,-4.333999753E-1
1.675933067E1,-8.772000074E-1,1.593699932E0,-7.954999804E-1
1.676933067E1,-5.444999933E-1,1.816599965E0,-2.340999842E0
1.677933067E1,-4.999999702E-2,1.399099946E0,-3.922499895E0
1.678933067E1,-6.669999659E-2,1.204299927E0,-5.302299976E0
1.679933067E1,-1.704999954E-1,1.644599915E0,-5.242700100E0
1.680933067E1,7.020999789E-1,2.396199942E0,-3.163800001E0
1.681933067E1,1.741899967E0,2.477099895E0,8.029999584E-2
1.682933067E1,3.407899857E0,1.473799944E0,2.756899834E0
1.683933067E1,3.236399889E0,3.357999921E-1,5.502699852E0
1.684933067E1,-2.611999810E-1,-7.211999893E-1,9.274799347E0
1.685933067E1,-3.740499973E0,-1.632200003E0,7.478799820E0
1.686933067E1,-4.004499912E0,-1.518499970E0,1.092800021E0
1.687933067E1,-2.494400024E0,-8.378999829E-1,-1.835699916E0
1.688933067E1,-1.410799980E0,-7.509999871E-1,-1.807399988E0
1.689933067E1,-1.257699966E0,-1.139799953E0,8.940000087E-2
1.690933067E1,-1.647300005E0,-2.129199982E0,3.485699892E0
1.691933067E1,-2.048500061E0,-3.227599859E0,7.923199654E0
1.692933067E1,-2.524600029E0,-3.481400013E0,8.452099800E0
1.693933067E1,-3.402599812E0,-2.925099850E0,5.122099876E0
1.694933067E1,-5.282499790E0,-2.107100010E0,1.428699970E0
1.695933067E1,-7.879099846E0,-1.598999977E0,-1.766600013E0
1.696933067E1,-9.833299637E0,-2.209199905E0,-2.952100039E0
1.697933067E1,-1.044349957E1,-3.836399794E0,-3.401399851E0
1.698933067E1,-8.772099495E0,-4.344299793E0,-3.019599915E0
1.699933067E1,-6.382099628E0,-3.563799858E0,1.692000031E-1
1.700933067E1,-6.333399773E0,-2.937999964E0,2.282999992E0
1.701933067E1,-9.468099594E0,-3.925400019E0,2.096499920E0
1.702933067E1,-1.042539978E1,-4.904599667E0,2.562599897E0
1.703933067E1,-9.606499672E0,-5.933799744E0,5.268300056E0
1.704933067E1,-7.835700035E0,-7.070499897E0,7.266399860E0
1.705933067E1,-4.997600079E0,-7.862899780E0,7.397999763E0
1.706933067E1,-1.530499935E0,-7.334399700E0,6.012000084E0
1.707933067E1,1.184399962E0,-6.433699608E0,5.355799675E0
1.708933067E1,2.838799953E0,-5.341899872E0,3.847100019E0
1.709933067E1,2.400399923E0,-4.335700035E0,-4.366999865E-1
1.710933067E1,1.430899978E0,-3.188699961E0,-5.603199959E0
1.711933067E1,3.648999929E-1,-3.242499828E0,-8.207799911E0
1.712933067E1,-1.767999977E-1,-3.794799805E0,-8.078399658E0
1.713933067E1,1.252999902E-1,-4.906899929E0,-6.266499996E0
1.714933067E1,1.491299987E0,-5.626999855E0,-4.193699837E0
1.715933067E1,3.262199879E0,-6.013299942E0,-2.230399847E0
1.716933067E1,4.253900051E0,-5.886699677E0,-1.145799994E0
1.717933067E1,4.585899830E0,-5.578000069E0,-1.424499989E0
1.718933067E1,4.993999958E0,-4.711199760E0,-1.608199954E0
1.719933067E1,4.483399868E0,-3.931299925E0,-1.095099926E0
1.720933067E1,2.865999937E0,-4.053299904E0,-1.553399920E0
1.721933067E1,2.540899992E0,-4.062599659E0,-3.141799927E0
1.722933067E1,3.502599955E0,-3.192699909E0,-4.499000072E0
1.723933067E1,4.014599800E0,-2.161299944E0,-5.931299686E0
1.724933067E1,4.374000072E0,-1.303900003E0,-9.809800148E0
1.725933067E1,3.089099884E0,-5.133999586E-1,-1.213799953E1
1.726933067E1,2.523699999E0,8.634999990E-1,-1.127789974E1
1.727933067E1,4.249999821E-1,1.801899910E0,-5.449599743E0
1.728933067E1,-9.255999923E-1,3.322899818E0,2.230299950E0
1.729933067E1,9.756000042E-1,4.681200027E0,-1.618199944E0
1.730933067E1,3.347399950E0,5.674099922E0,-4.857199669E0
1.731933067E1,4.358900070E0,6.476799965E0,-5.150000095E0
1.732933067E1,5.096799850E0,6.773699760E0,-5.582599640E0
1.733933067E1,5.584199905E0,6.894000053E0,-6.039700031E0
1.734933067E1,6.690499783E0,7.485899925E0,-6.639099598E0
1.735933067E1,7.103099823E0,7.827999592E0,-6.880599976E0
1.736933067E1,7.857999802E0,8.142700195E0,-6.827799797E0
1.737933067E1,7.932799816E0,8.282999992E0,-6.703499794E0
1.738933067E1,8.015600204E0,8.429900169E0,-6.854099751E0
1.739933067E1,7.556699753E0,8.243800163E0,-6.927999973E0
1.740933067E1,6.462599754E0,7.560299873E0,-6.373499870E0
1.741933067E1,5.225199699E0,6.402699947E0,-4.851599693E0
1.742933067E1,3.503700018E0,4.799099922E0,-2.091399908E0
1.743933067E1,3.179999813E-2,1.598599911E0,2.736599922E0
1.744933067E1,-6.267999649E0,-3.643699884E0,9.803099632E0
1.745933067E1,-1.250889969E1,-9.529500008E0,1.142459965E1
1.746933067E1,-1.508239937E1,-1.366769981E1,6.572199821E0
1.747933067E1,-1.246669960E1,-1.398489952E1,5.184400082E0
1.748933067E1,-7.991799831E0,-1.101900005E1,5.062799931E0
1.749933067E1,-3.901499987E0,-6.335399628E0,3.570699930E0
1.750933067E1,-1.004699945E0,-1.688799977E0,3.110299826E0
1.751933067E1,7.839999795E-1,1.490499973E0,1.330399990E0
1.752933067E1,2.687500000E0,3.538199902E0,-1.719900012E0
1.753933067E1,5.170599937E0,3.275699854E0,-2.629899979E0
1.754933067E1,5.901400089E0,4.460999966E-1,-1.441499949E0
1.755933067E1,6.876299858E0,-2.777899981E0,-1.396399975E0
1.756933067E1,6.939099789E0,-5.896199703E0,9.831999540E-1
1.757933067E1,4.143399715E0,-1.011429977E1,4.001199722E0
1.758933067E1,-1.694099903E0,-1.332259941E1,4.721799850E0
1.759933067E1,-2.792599916E0,-1.254949951E1,3.629899979E0
1.760933067E1,-7.495999932E-1,-7.486999989E0,2.527000010E-1
1.761933067E1,4.575500011E0,-1.611000001E-1,-8.516200066E0
1.762933067E1,9.191399574E0,5.729499817E0,-1.262819958E1
1.763933067E1,1.008799934E1,7.305099964E0,-1.020829964E1
1.764933067E1,9.926499367E0,6.763799667E0,-8.153800011E0
1.765933067E1,1.056110001E1,6.639599800E0,-6.959599972E0
1.766933067E1,1.003230000E1,6.091799736E0,-5.515199661E0
1.767933067E1,9.036299706E0,4.824800014E0,-4.394000053E0
1.768933067E1,7.727699757E0,3.360800028E0,-3.242100000E0
1.769933067E1,6.176599979E0,8.631999493E-1,-3.950699806E0
1.770933067E1,4.249899864E0,-3.137499809E0,-4.773399830E0
1.771933067E1,1.853399992E0,-6.026899815E0,-5.644000053E0
1.772933067E1,-4.165000021E-1,-6.694099903E0,-6.633999825E0
1.773933067E1,-1.750499964E0,-5.826299667E0,-6.898299694E0
1.774933067E1,-2.093199968E0,-3.835199833E0,-6.176099777E0
1.775933067E1,-2.216399908E0,-1.767300010E0,-4.891099930E0
1.776933067E1,-2.376499891E0,7.400000002E-3,-3.930899858E0
1.777933067E1,-2.056799889E0,1.858199954E0,-2.062000036E0
1.778933067E1,-2.723299980E0,2.810299873E0,4.144999981E-1
1.779933067E1,-4.034899712E0,2.112099886E0,2.240200043E0
1.780933067E1,-4.500799656E0,1.565099955E0,2.643399954E0
1.781933067E1,-3.873999834E0,1.778499961E0,1.364599943E0
1.782933067E1,-2.536299944E0,1.713199973E0,-1.256399989E0
1.783933067E1,-1.724499941E0,1.067000031E0,-3.710799932E0
1.784933067E1,-1.021099925E0,1.106299996E0,-6.174900055E0
1.785933067E1,4.910000041E-2,1.615499973E0,-6.568500042E0
1.786933067E1,1.284099936E0,1.827899933E0,-4.027499676E0
1.787933067E1,2.772199869E0,1.635499954E0,-1.053799987E0
1.788933067E1,5.145599842E0,7.015999556E-1,1.353799939E0
1.789933067E1,4.375199795E0,3.570999801E-1,7.094799995E0
1.790933067E1,-1.092000008E-1,-4.459999874E-2,1.068489933E1
1.791933067E1,-2.022899866E0,-1.620000042E-2,6.926599979E0
1.792933067E1,-1.705199957E0,-2.199999988E-1,1.324699998E0
1.793933067E1,-1.170799971E0,-5.212999582E-1,-1.319800019E0
1.794933067E1,-6.748999953E-1,-9.366999865E-1,-2.456099987E0
1.795933067E1,-6.565999985E-1,-1.420699954E0,-1.789199948E0
1.796933067E1,-9.348999858E-1,-1.736699939E0,1.548200011E0
1.797933067E1,-1.127099991E0,-1.843199968E0,6.876100063E0
1.798933067E1,-1.263199925E0,-1.951399922E0,8.042499542E0
1.799933067E1,-2.162400007E0,-2.092599869E0,5.368700027E0
1.800933067E1,-4.033100128E0,-1.940999985E0,1.167400002E0
1.801933067E1,-6.504099846E0,-2.060799837E0,-2.976199865E0
1.802933067E1,-8.215999603E0,-2.629299879E0,-3.930299997E0
1.803933067E1,-7.966499805E0,-3.483299971E0,-1.332499981E0
1.804933067E1,-6.487099648E0,-4.364699841E0,-6.365000010E-1
1.805933067E1,-4.730199814E0,-3.868999958E0,6.935999990E-1
1.806933067E1,-5.011799812E0,-3.292299986E0,2.720000029E0
1.807933067E1,-8.432099342E0,-3.967399836E0,2.830699921E0
1.808933067E1,-9.652500153E0,-4.399199963E0,3.048199892E0
1.809933067E1,-9.032899857E0,-5.126699924E0,4.904900074E0
1.810933067E1,-7.967399597E0,-6.463699818E0,6.903800011E0
1.811933067E1,-5.963299751E0,-7.953299999E0,6.704599857E0
1.812933067E1,-3.414199829E0,-8.442299843E0,5.060699940E0
1.813933067E1,-1.173499942E0,-7.709099770E0,4.311899662E0
1.814933067E1,3.464999795E-1,-6.420700073E0,4.543299675E0
1.815933067E1,1.135900021E0,-4.617499828E0,2.365299940E0
1.816933067E1,1.482899904E0,-2.721099854E0,-2.554899931E0
1.817933067E1,6.473000050E-1,-2.065799952E0,-6.902299881E0
1.818933067E1,2.908000052E-1,-3.153599977E0,-8.109899521E0
1.819933067E1,7.434999943E-1,-4.722700119E0,-7.483799934E0
1.820933067E1,2.002899885E0,-5.624499798E0,-5.552399635E0
1.821933067E1,3.337899923E0,-5.596600056E0,-3.657999992E0
1.822933067E1,4.164799690E0,-4.787399769E0,-2.404000044E0
1.823933067E1,4.234499931E0,-3.965600014E0,-2.371999979E0
1.824933067E1,4.345299721E0,-3.340799809E0,-1.881299973E0
1.825933067E1,2.855799913E0,-4.018300056E0,-4.658999741E-1
1.826933067E1,1.323199987E0,-5.413599968E0,-2.599000037E-1
1.827933067E1,1.138199925E0,-6.101099968E0,-1.500899911E0
1.828933067E1,2.585099936E0,-4.429500103E0,-3.561499834E0
1.829933067E1,3.754499912E0,-2.777400017E0,-4.672299862E0
1.830933067E1,4.136199951E0,-2.028499842E0,-6.566499710E0
1.831933067E1,3.991199970E0,-1.234899998E0,-8.328899384E0
1.832933067E1,4.344399929E0,2.636999786E-1,-1.077390003E1
1.833933067E1,3.248699903E0,1.993599892E0,-1.299809933E1
1.834933067E1,4.748999774E-1,2.957000017E0,-6.206299782E0
1.835933067E1,-5.289999843E-1,4.399300098E0,2.523599863E0
1.836933067E1,1.118899941E0,5.428400040E0,-2.997999787E-1
1.837933067E1,2.999300003E0,6.675999641E0,-4.452699661E0
1.838933067E1,3.765899897E0,7.445899963E0,-5.390699863E0
1.839933067E1,4.104300022E0,7.553400040E0,-5.600100040E0
1.840933067E1,5.075799942E0,7.725299835E0,-6.053400040E0
1.841933067E1,6.193799973E0,8.065599442E0,-6.897099972E0
1.842933067E1,7.081199646E0,8.143400192E0,-7.202999592E0
1.843933067E1,7.732899666E0,8.124899864E0,-7.019999981E0
1.844933067E1,7.524099827E0,8.044899940E0,-6.995399952E0
1.845933067E1,6.878299713E0,8.022799492E0,-7.193099976E0
1.846933067E1,6.459099770E0,7.707499981E0,-6.923799992E0
1.847933224E1,5.565299988E0,6.714399815E0,-5.967999935E0
1.848933067E1,4.126699924E0,5.245199680E0,-4.313399792E0
1.849933067E1,1.100099921E0,3.039599895E0,-1.300099969E0
1.850933067E1,-3.363199949E0,-5.446000099E-1,3.465899944E0
1.851933067E1,-8.066499710E0,-5.502599716E0,8.624899864E0
1.852933067E1,-1.210809994E1,-1.117630005E1,8.906499863E0
1.853933067E1,-1.375929928E1,-1.552329922E1,6.262399673E0
1.854933067E1,-1.150169945E1,-1.514540005E1,6.868799686E0
1.855933067E1,-6.609699726E0,-1.024879932E1,6.315000057E0
1.856933067E1,-3.220499992E0,-5.082699776E0,4.289700031E0
1.857933067E1,-2.423999906E-1,-8.332999945E-1,3.199699879E0
1.858933067E1,1.526399970E0,2.274799824E0,1.133499980E0
1.859933067E1,2.938400030E0,4.456399918E0,-2.744999886E0
1.860933067E1,5.127099991E0,4.534899712E0,-4.876399994E0
1.861933067E1,7.035999775E0,2.146600008E0,-4.964099884E0
1.862933067E1,7.298899651E0,-1.265999913E0,-5.060899734E0
1.863933067E1,5.912699699E0,-3.284899950E0,-3.014899969E0
1.864933067E1,3.211899996E0,-6.416800022E0,1.768999994E-1
1.865933067E1,-1.369300008E0,-1.106859970E1,5.766200066E0
1.866933067E1,-6.733399868E0,-1.451399994E1,8.868100166E0
1.867933067E1,-5.910500050E0,-1.262899971E1,6.122600079E0
1.868933067E1,5.486999750E-1,-5.840799809E0,-6.078000069E-1
1.869933067E1,7.088199615E0,2.252799988E0,-1.041090012E1
1.870933067E1,1.034630013E1,6.756700039E0,-1.192700005E1
1.871933067E1,1.300949955E1,7.850599766E0,-9.403200150E0
1.872933067E1,1.233710003E1,7.340099812E0,-6.507999897E0
1.873933067E1,1.092719936E1,7.085099697E0,-3.818899870E0
1.874933067E1,9.333499908E0,6.474099636E0,-2.356600046E0
1.875933067E1,7.680500031E0,4.951099873E0,-2.968799829E0
1.876933067E1,6.543999672E0,2.969300032E0,-3.913100004E0
1.877933067E1,5.859899998E0,-8.630000055E-2,-4.974099636E0
1.878933067E1,3.950599909E0,-4.207399845E0,-6.128699780E0
1.879933067E1,9.713999629E-1,-7.195799828E0,-7.076900005E0
1.880933067E1,-1.456300020E0,-7.657599926E0,-7.401599884E0
1.881933067E1,-2.968899965E0,-6.122299671E0,-6.973599911E0
1.882933067E1,-2.918999910E0,-3.309999943E0,-5.510200024E0
1.883933067E1,-2.546799898E0,-9.090999961E-1,-3.785300016E0
1.884933067E1,-2.504499912E0,9.716999531E-1,-1.514199972E0
1.885933067E1,-3.124500036E0,2.029899836E0,7.913999557E-1
1.886933067E1,-3.507499933E0,2.616400003E0,2.437399864E0
1.887933067E1,-4.087899685E0,2.066099882E0,2.539599895E0
1.888933067E1,-4.260799885E0,1.716399908E0,1.123399973E0
1.889933067E1,-4.005099773E0,2.108999968E0,-1.079599977E0
1.890933067E1,-2.529000044E0,2.313999891E0,-3.151799917E0
1.891933067E1,-1.165300012E0,2.184900045E0,-4.973099709E0
1.892933067E1,1.431999952E-1,2.113899946E0,-4.317599773E0
1.893933067E1,7.573999763E-1,2.167799950E0,-3.012799978E0
1.894933067E1,1.995099902E0,1.993199944E0,-2.627499819E0
1.895933067E1,4.957699776E0,1.461300015E0,-3.188000023E-1
1.896933067E1,7.246599674E0,1.125299931E0,6.818599701E0
1.897933067E1,4.740699768E0,3.437999785E-1,1.202169991E1
1.898933067E1,1.637300014E0,-2.141999900E-1,6.828599930E0
1.899933067E1,-8.956999779E-1,-1.061800003E0,-5.565999746E-1
1.900933067E1,-1.556100011E0,-1.222499967E0,-4.609299660E0
1.901933067E1,-1.008499980E0,-6.152999997E-1,-4.385900021E0
1.902933067E1,-1.618799925E0,-9.239999652E-1,-3.459999859E-1
1.903933067E1,-2.849999905E0,-1.790899992E0,3.866400003E0
1.904933067E1,-4.007699966E0,-2.455699921E0,6.765799999E0
1.905933067E1,-4.537300110E0,-2.500000000E0,6.271299839E0
1.906933067E1,-4.467700005E0,-2.206399918E0,3.847800016E0
1.907933067E1,-5.133500099E0,-2.213399887E0,6.561999917E-1
1.908933067E1,-6.765599728E0,-3.021299839E0,-1.847599983E0
1.909933067E1,-7.613799572E0,-4.317199707E0,-3.144799948E0
1.910933067E1,-6.291699886E0,-4.403500080E0,-1.900900006E0
1.911933067E1,-5.585000038E0,-4.330999851E0,-4.175999761E-1
1.912933067E1,-5.474799633E0,-3.578499794E0,1.710599899E0
1.913933067E1,-6.790599823E0,-3.646399975E0,3.356599808E0
1.914933067E1,-7.996999741E0,-4.637799740E0,3.764799833E0
1.915933067E1,-7.871899605E0,-4.965300083E0,5.245899677E0
1.916933067E1,-7.877499580E0,-5.729599953E0,6.316799641E0
1.917933067E1,-7.340799809E0,-7.420699596E0,7.090699673E0
1.918933067E1,-5.077600002E0,-8.567199707E0,6.093400002E0
1.919933067E1,-2.297199965E0,-8.159600258E0,4.704099655E0
1.920933067E1,-2.247999907E-1,-6.930699825E0,4.113399982E0
1.921933067E1,1.857100010E0,-4.801199913E0,3.098399878E0
1.922933067E1,2.670699835E0,-3.139299870E0,2.439999878E-1
1.923933067E1,2.424799919E0,-2.551599979E0,-4.227299690E0
1.924933067E1,1.986799955E0,-3.278100014E0,-7.341099739E0
1.925933067E1,2.183599949E0,-4.514400005E0,-7.790899754E0
1.926933067E1,2.791299820E0,-5.320099831E0,-6.668699741E0
1.927933067E1,3.521399975E0,-5.271499634E0,-4.832900047E0
1.928933067E1,4.602699757E0,-4.909199715E0,-3.150399923E0
1.929933067E1,4.894499779E0,-4.534199715E0,-2.182999849E0
1.930933067E1,4.468199730E0,-4.486099720E0,-1.979399920E0
1.931933067E1,4.237899780E0,-4.499199867E0,-8.205999732E-1
1.932933067E1,2.716500044E0,-4.965499878E0,2.577999830E-1
1.933933067E1,1.316599965E0,-5.544600010E0,-5.974999666E-1
1.934933067E1,2.545199871E0,-4.230099678E0,-2.318799973E0
1.935933067E1,3.670099974E0,-2.780400038E0,-4.163000107E0
1.936933067E1,3.552899837E0,-1.531299949E0,-7.138299942E0
1.937933067E1,3.365399837E0,-7.008000016E-1,-8.523200035E0
1.938933067E1,3.092700005E0,4.876999855E-1,-8.855599403E0
1.939933067E1,1.909399986E0,2.048300028E0,-8.450499535E0
1.940933067E1,5.580999851E-1,2.938899994E0,-9.016300201E0
1.941933067E1,-6.351000071E-1,4.424099922E0,-2.640499830E0
1.942933067E1,-1.762999892E-1,5.665199757E0,-8.413999677E-1
1.943933067E1,2.046900034E0,6.409199715E0,-3.705699921E0
1.944933067E1,2.653300047E0,6.656899929E0,-4.803400040E0
1.945933067E1,3.505800009E0,7.004299641E0,-4.869899750E0
1.946933067E1,4.733099937E0,7.634199619E0,-5.626399994E0
1.947933067E1,6.191699982E0,8.394800186E0,-6.793499947E0
1.948933067E1,7.065599918E0,8.739500046E0,-7.422399998E0
1.949933067E1,7.408099651E0,8.808699608E0,-7.323199749E0
1.950933067E1,6.688099861E0,8.484000206E0,-7.254199982E0
1.951933067E1,5.821099758E0,7.991499901E0,-7.114299774E0
1.952933067E1,5.334300041E0,7.417699814E0,-6.835700035E0
1.953933067E1,4.779999733E0,6.352900028E0,-5.935100079E0
1.954933067E1,3.710399866E0,4.836800098E0,-3.702799797E0
1.955933067E1,1.281999946E0,2.583499908E0,-3.173999786E-1
1.956933067E1,-3.065799952E0,-1.398299932E0,4.170300007E0
1.957933067E1,-7.652299881E0,-6.558399677E0,8.712200165E0
1.958933067E1,-1.163539982E1,-1.172709942E1,8.918600082E0
1.959933067E1,-1.209669971E1,-1.455229950E1,7.225800037E0
1.960933067E1,-9.052199364E0,-1.314839935E1,7.531799793E0
1.961933067E1,-5.676499844E0,-8.892399788E0,5.785099983E0
1.962933067E1,-2.255699873E0,-4.468800068E0,3.784499884E0
1.963933067E1,5.695999861E-1,-5.177999735E-1,2.890199900E0
1.964933067E1,1.964699984E0,2.489099979E0,8.252999783E-1
1.965933067E1,3.259399891E0,4.297299862E0,-2.376600027E0
1.966933067E1,5.051300049E0,4.144099712E0,-2.553400040E0
1.967933067E1,6.350299835E0,1.127699971E0,-1.067700028E0
1.968933067E1,8.139999390E0,-2.469300032E0,-9.131999612E-1
1.969933067E1,1.109630013E1,-5.970299721E0,7.766999602E-1
1.970933067E1,1.051179981E1,-9.218999863E0,2.765100002E0
1.971933067E1,3.006000042E0,-1.223110008E1,3.563899994E0
1.972933067E1,-3.983799934E0,-1.267490005E1,4.814899921E0
1.973933067E1,-2.329699993E0,-6.711599827E0,-1.299799919E0
1.974933067E1,2.959100008E0,8.136999607E-1,-9.302499771E0
1.975933067E1,8.248600006E0,5.491499901E0,-1.363039970E1
1.976933067E1,1.039410019E1,6.983399868E0,-1.074059963E1
1.977933067E1,1.030399990E1,6.556699753E0,-8.659999847E0
1.978933067E1,9.537699699E0,5.803299904E0,-7.804499626E0
1.979933067E1,8.404399872E0,4.715099812E0,-6.454899788E0
1.980933067E1,7.286099911E0,3.198999882E0,-4.984999657E0
1.981933067E1,5.632699966E0,1.313399911E0,-4.078400135E0
1.982933067E1,4.423099995E0,-6.495999694E-1,-5.486700058E0
1.983933067E1,2.639499903E0,-3.203899860E0,-6.005499840E0
1.984933067E1,3.272999823E-1,-5.060199738E0,-5.076900005E0
1.985933067E1,-9.869999886E-1,-5.131400108E0,-4.684899807E0
1.986933067E1,-1.321900010E0,-3.962799788E0,-4.149600029E0
1.987933067E1,-9.998999834E-1,-2.399799824E0,-3.872599840E0
1.988933067E1,-5.662999749E-1,-7.484999895E-1,-4.179899693E0
1.989933067E1,-7.822999954E-1,3.436999917E-1,-4.754199982E0
1.990933067E1,-2.088299990E0,9.271000028E-1,-4.029699802E0
1.991933067E1,-3.341199875E0,1.689000010E0,-1.619799972E0
1.992933067E1,-4.317699909E0,2.111599922E0,4.043000042E-1
1.993933067E1,-4.557300091E0,2.020299911E0,2.402099848E0
1.994933067E1,-4.014899731E0,2.129999876E0,1.727800012E0
1.995933067E1,-2.154099941E0,1.698199987E0,-2.056999952E-1
1.996933067E1,-1.184499979E0,1.352899909E0,-2.769799948E0
1.997933067E1,-2.159999870E-2,1.556399941E0,-4.720499992E0
1.998933067E1,6.143999696E-1,1.532400012E0,-4.889800072E0
1.999933067E1,7.910999656E-1,1.477699995E0,-3.264799833E0
2.000933067E1,1.285899997E0,9.377999902E-1,-9.589999914E-1
2.001933067E1,1.538299918E0,1.649999991E-2,1.513000011E0
2.002933067E1,8.062999845E-1,-5.274999738E-1,6.213299751E0
2.003933067E1,6.729999930E-2,-4.932999909E-1,9.255199432E0
2.004933067E1,-3.826999962E-1,-3.197999895E-1,5.742199898E0
2.005933067E1,5.049999803E-2,2.047999948E-1,1.826399922E0
2.006933067E1,-1.150999963E-1,-3.350000083E-2,-2.312999964E-1
2.007933067E1,-2.195999920E-1,-2.793999910E-1,-1.634799957E0
2.008933067E1,-6.240999699E-1,-9.842000008E-1,-8.561999798E-1
2.009933067E1,-1.693699956E0,-2.332399845E0,2.821399927E0
2.010933067E1,-2.771299839E0,-3.598699808E0,7.218099594E0
2.011933067E1,-3.386699915E0,-3.679399967E0,6.751699924E0
2.012933067E1,-4.109499931E0,-2.972999811E0,2.672600031E0
2.013933067E1,-5.538399696E0,-2.084599972E0,-6.284999847E-1
2.014933067E1,-7.079899788E0,-1.693300009E0,-1.559899926E0
2.015933067E1,-7.404899597E0,-2.045300007E0,-1.066599965E0
2.016933067E1,-6.151299953E0,-2.718299866E0,-2.483999878E-1
2.017933067E1,-6.005300045E0,-3.613699913E0,1.982999891E-1
2.018933067E1,-6.754399776E0,-3.909499884E0,1.108299971E0
2.019933067E1,-8.249699593E0,-4.143499851E0,1.837700009E0
2.020933067E1,-1.068209934E1,-4.959700108E0,1.197700024E0
2.021933067E1,-1.104959965E1,-5.627199650E0,2.648499966E0
2.022933067E1,-9.648399353E0,-6.590099812E0,5.132199764E0
2.023933067E1,-7.863499641E0,-7.546299934E0,7.545300007E0
